time,adxl1_x,adxl1_y,adxl1_z,adxl2_x,adxl2_y,adxl2_z,bmi1_acc_x,bmi1_acc_y,bmi1_acc_z,bmi1_gyro_x,bmi1_gyro_y,bmi1_gyro_z,bmi2_acc_x,bmi2_acc_y,bmi2_acc_z,bmi2_gyro_x,bmi2_gyro_y,bmi2_gyro_z,bmp1_p,bmp1_t,bmp2_p,bmp2_t
0.435166895389557,-1.51515979227267,11.5325421895766,6.20402655655128,-4.94818878901813,0.0790763536483787,10.8083157379965,0.169689062176188,-0.421363120907719,9.82622576564056,-0.116636864277031,0.0514526749476678,0.0481974516876453,0.259931388928197,0.639312381092867,9.93699267674311,-0.512605940001889,-0.0701622040338552,-0.224011995944727,1014.56656164976,25.0053988672122,1013.01923757848,25.1054159624819
0.452389001846314,-1.03812596091118,-2.80955010082944,5.02139316222618,0.86911943531619,0.829429691463912,10.7463191121377,0.266484540003406,0.140574010897114,9.48901640452813,0.0363559405689385,0.153822757088026,0.114377019352462,0.732939661701454,0.485738879777179,10.5354849962071,-0.0132913454167941,-0.0586925628013128,-0.01713264605631,1013.91140713085,26.2138220246155,1012.02933945267,24.844405615924
0.488415747880936,-11.628181966472,1.53564807752729,3.90140560815733,5.21095784327714,10.7306198976838,10.4705866380922,-0.411911908876184,-0.215771217773497,9.88946951715539,0.0252644937074355,0.0725492019230148,0.0540111275153771,-0.112219377565211,0.102066509464586,9.76613591639306,0.228074902822088,-0.154985464182884,-0.314312268548994,1012.86444247093,24.5694470494082,1014.39985911452,24.5173948721287
0.551548182964325,9.03681086358454,-1.16651319980791,6.10541149527802,9.43555740217579,0.489708581104609,15.739298267904,0.50528451883106,0.501160622037223,10.3172096684219,-0.292085416402916,0.14158925049926,0.059268297794332,0.343873477634428,-0.247916428230391,9.83918722868505,-0.217894272497058,0.0502852377081862,-0.132429790780255,1013.05799735063,24.4961916897032,1014.13672155391,25.5251221043124
0.624833941459656,5.27672399410048,7.33863155134871,9.7957600886823,-4.45236415045123,-6.48452855603713,8.26563362356337,-0.506598795646964,0.344377838836738,9.793539488448,0.108902501948974,-0.0447267156585358,0.173925788439059,-0.369912065924477,0.105384906183275,9.89045590010713,-0.127746238376427,-0.199319793365796,-0.186890659209496,1010.77634263169,24.5357872616623,1012.31323332115,24.5327554838429
0.700608313083649,-3.89391093940098,4.54568530029522,13.3958502173539,-8.32757085191934,-2.46734013519204,8.98486025183736,-0.0220281314889984,-0.518367651522771,9.4101903378831,0.0619260235529849,-0.180806192089008,0.205644739649178,-0.520066442119846,-0.426553149807313,10.1643280650062,-0.0130322309573102,-0.0744813097387861,-0.0056660003614884,1013.64031333715,24.8914482023443,1013.91623952639,25.3523085236298
0.75784569978714,-5.34321883847579,6.77578670631829,7.79478553401235,-0.558017674559257,6.93772302463174,3.79019407916635,-0.72216219250929,-0.0388101516616081,10.0595883105708,0.282738147011904,-0.377283805061775,-0.129286362049975,-0.43637768930507,-0.0937765687439508,10.265821524235,-0.252940104768451,0.0740260989023224,0.0748071461774888,1013.88358691016,24.4686425771232,1012.63276530904,24.5503704562276
0.815083086490631,6.78474099181979,-2.03951746222107,5.99296724745183,1.37203966218105,-0.908012022097609,6.05385965153494,0.672678804441133,-0.727487470175889,10.3941908586366,-0.10314806322591,0.443785867660501,-0.231871047022792,0.045239946637794,-0.295123736528605,9.56363944408594,0.008676361840732,-0.16714238808289,-0.250191547256733,1012.13336583734,25.0793400120835,1013.01990194831,25.136133177454
0.86639016866684,0.417556999081874,-0.768779004641865,13.6256412669796,-9.46298488332157,2.94952431835732,7.21250202962723,0.347699727505674,0.964160168255912,9.49561430635994,0.276581305161532,-0.297247038438353,-0.0617896024267953,0.17927798548291,-0.510828545458484,9.43424402185343,0.0629453907201813,0.0990149204354632,-0.195893751660784,1012.69341576719,25.39218225753,1013.8470819874,25.2942957796636
0.911804437637329,-6.44253404454792,8.08301627532624,12.1121885483208,0.99732058349048,-4.53294848409082,6.10561907186944,0.10468276452464,-0.68468790227083,10.0297922935013,0.0483404508354952,0.0842204690504075,-0.0944975004063649,-0.00704626379836,-0.503062951873256,9.57421117002384,0.214814712317899,0.16338176894209,-0.0038642770981301,1013.1891891482,25.7792981442522,1014.84779211609,24.3977222128712
0.95400595664978,2.72714212336443,1.96760871092673,13.2759188810427,1.24686280610762,-9.05047115367701,8.86197845192088,-0.78003579546555,0.0042562665830497,10.3060856965489,-0.0087566611259414,0.0005554361667182,0.350686395647587,0.234564284161302,-0.302917408635205,10.8001410143633,-0.0355400164464067,0.176086169754817,-0.0449004000166804,1012.02116865686,24.8614421743203,1013.64546049554,26.2006222568045
0.994683861732483,-3.66767554026074,-1.74073583637383,14.0903023405505,-4.95008851512193,-9.98704931082588,16.969971051797,-0.235757219348607,0.334460059903864,9.6271507444173,-0.204749252036376,-0.104076599445376,-0.121024822671208,0.855156224723051,0.34241103284918,10.2188901859094,0.183665573835529,-0.105224023428328,-0.243166928895681,1013.81425452347,25.5443008543456,1013.50523452425,26.1121036108289
1.03637754917145,1.25550070799354,8.80652958876623,8.66719979437509,-3.41706489876929,-0.727317386619128,4.78292519694523,0.464464439366931,-0.0775089854328368,8.56737958418443,-0.06528536445955,0.0315509890370535,0.0220544016733351,0.678347204786395,-0.35376169492411,9.03087374227265,0.132445402761383,-0.180725036899709,0.161338105039204,1012.80522127175,25.1037878998086,1013.00373307981,24.9424709875384
1.07746410369873,-2.60345367125814,8.85123345695663,8.67522680992792,6.83363628698606,-4.79206448079686,7.90608272698398,-0.758911198952426,-0.228324710901,10.7942590604169,0.0106247894694733,-0.0390417525810082,-0.227823797812104,-0.373138643640263,0.0535495796241516,10.4028378050584,-0.153936327862773,0.32964969832261,-0.423183993314245,1012.59640252698,24.9884767855244,1012.10640918813,25.3489794143571
1.12371790409088,-6.29108669098101,-0.520639615206837,12.7430625304736,-4.02426213512192,1.12390294348334,-0.0354946345266071,0.178683241168435,0.447752531704442,10.6365856526445,0.0777924591492497,-0.0927805303319705,0.0020523588638709,0.437123173399276,-0.132815413760008,10.2055894999436,-0.143591709657736,0.0386128290426433,-0.0152747146342405,1013.4933042126,24.3306959423942,1011.34788040148,25.4738554779226
1.16649615764618,3.38136468407576,-2.97655190794037,13.6138210071806,-11.7346451084502,6.21516922974637,15.2070095927065,-0.163340988343283,0.80899440678599,9.90295691692049,-0.0758106550751279,0.11625331684449,0.0321692438453536,-0.522847902950951,-1.00055092178358,8.55655207517121,-0.0977243915262033,0.000401256579352,0.234211567926197,1012.7629501395,25.0414104184775,1013.56485125319,25.0996485441929
1.20927441120148,0.582345116815115,-2.15795752417419,8.7265341377953,-4.2769356449829,10.4494659989418,18.5423015752109,-0.0092763689315064,-0.793464074416707,9.35703771670529,-0.335644022223195,0.126972428880175,-0.0390658304566021,-0.341473543780828,0.507782934457788,10.0711974007627,-0.116787647004233,0.21523390072381,-0.0811509433944788,1013.90053731241,25.1484528781573,1014.13909224304,24.6959861587257
1.24532353878021,-6.18107672318991,2.30446652335496,7.67239762397132,5.0525774923391,8.50463236266383,5.79530420692338,0.487618469972104,0.299632020106163,9.69755514979924,-0.242852237941622,-0.183533730321322,-0.190973712584282,0.506059635847993,0.218582828655493,9.20610053670146,-0.300846479145804,-0.0404995313273755,0.291969508388394,1013.38427272942,24.9855302523629,1012.83523602785,25.5057004570031
1.27841424942017,4.00828277680503,3.15633992835157,6.27758980461961,-0.651500708049018,2.70085179116264,1.62321746348914,0.334057526546184,1.21575517831412,9.99783257689112,0.29557720329417,-0.212556463014747,-0.216971095964688,0.0699553401993717,0.19261456477465,9.80181219653821,-0.0952004867557863,0.314128859908309,0.018650236790566,1014.65403685018,25.8140171093039,1013.77682016955,25.5012530334071
1.31092083454132,2.27715022860958,-3.61652061100346,14.1946079702318,8.48206480849387,2.35992152778255,16.6887001736511,-0.612359616885964,0.347180493459584,9.10195791695666,0.154884974165771,0.0203159542030235,0.0252048576685157,-0.105385215393182,-0.764098740535369,10.4010718935543,-0.203932455047421,-0.0591010985095251,0.430772789975358,1012.67280148995,24.8205754735933,1012.44574568786,25.5616325959812
1.34353458881378,-9.08902989673615,3.87778421058441,10.6389257738588,1.7988340808483,18.0197483958843,13.8229623924008,0.246592590039793,-0.254732904260144,9.95309479154448,0.0030944232562464,0.0958941974724268,0.246789316025317,0.41287589925975,-0.156907603344215,9.12036000694432,0.0793051955762227,-0.318395708222038,0.279916201364795,1013.37696252357,25.5037932984307,1011.45658577235,24.3942795364026
1.37758779525757,1.99606527112467,-1.74558426961301,9.17423784077713,-1.73146471195217,2.6466269819807,5.75282917863432,-0.0797217429751818,0.846894715871773,9.58389641789622,-0.0012710726670267,-0.196550445833062,0.195629465677772,1.09733786704582,-0.53916171411759,9.58844128296378,0.595909746594665,-0.348900368645614,0.0130911377042462,1013.26636997541,25.522715325398,1014.06357088542,25.3726996741659
1.41459095478058,0.151963538071351,2.26222914180845,5.38514790819905,5.3843723506865,1.20860236157246,16.3238943732396,0.882227757045056,0.716070114332651,9.96937414121468,-0.176374910288949,0.261063844893626,0.419604178977554,0.0741630265855254,-0.438722027591153,9.09961544513843,-0.24546087481969,-0.1093942641152,-0.0165411847315114,1014.11462729001,24.5748181152796,1013.04040699515,24.6034688182424
1.45131134986877,2.25756466227558,-1.18136368258527,14.0878672626061,2.35727342735597,1.49719772543208,15.2587722147207,0.354309179445918,-0.403291094104552,10.031558712015,-0.144093850294498,-0.0877285998550424,0.422011055194022,0.290151763529125,0.516329858675789,9.87470245729044,-0.0394055141682245,0.146894122411256,0.115479291038334,1011.82235704286,24.1697103133926,1014.58041968371,24.7768816028109
1.48803174495697,-5.79027119841703,1.29624198986063,6.11643313865008,-2.40197624786119,-0.625104596206867,9.05892346369565,-0.0417642042131624,-0.67778922341083,10.4730838964728,-0.0926584372742548,-0.128956909300907,-0.0740737279406133,0.2740210255577,-0.629489578473499,8.92795358467718,-0.000440810967389,0.408336729457485,-0.165119104848008,1011.72918338285,25.3447012378785,1012.95377237825,25.0467959458825
1.51863479614258,-4.21977101213023,-7.53844554616137,3.69302459646393,2.6184212726648,3.45093385062139,9.57630591624011,-0.219498067471535,0.237885147313012,9.79995943530689,0.401460451634032,-0.343336528172626,-0.202907846600245,-0.237576543346955,-0.460075528614275,9.47336795962516,-0.148904114560145,-0.21460479452815,0.33712584802019,1014.72595312505,24.6050520223956,1012.51185130918,24.8131508712031
1.5476016998291,-9.41593324120954,-1.18343490029814,11.9548544583113,-4.33306347092386,-0.324950735131799,3.61062906808684,-0.343641170240465,-0.394763764262875,9.7047054958823,-0.205192531342263,-0.285140819819042,-0.333615301563032,0.762951795635478,-0.540227436114711,9.9226108810462,-0.0609423730026084,-0.0356646877722633,-0.0095617276062917,1013.02465667364,25.1701397855644,1013.15465410553,24.9362358062767
1.57646036148071,-10.5921422988944,-2.22690583800894,8.98827834418442,5.12875176792528,4.58432088371699,5.50623069058708,0.0003151484184613,-0.268005136446,9.61128089832347,-0.269635518964827,-0.0566926323849,0.0446465085028316,0.214209767661051,0.698147742069899,9.46209574905102,0.139190471384471,0.179859581208821,-0.249276931468344,1012.46993929369,24.1919557361891,1013.10059192501,24.1443382549301
1.60573756694794,-8.88140577183695,-0.116266345360669,23.2789772325697,4.4103662838028,3.88437477720061,10.9884678404836,-0.134670795187451,0.479377269668364,10.6998910051785,0.0375559987289198,-0.314708824227199,0.0138290627322889,-0.556078548631213,0.258579732049876,9.52445193456194,-0.191796550830387,-0.325409880374593,0.146225349427519,1012.17481622128,24.8737891448471,1013.01978297914,25.1326561347229
1.63756835460663,4.72809503648634,4.43456142803648,8.78455637117275,0.410379126441312,-1.45366421465449,8.60447268025231,0.224602755229423,-0.234640668110135,9.79321830729033,-0.359447427405978,0.0964360137186933,0.0251075096834701,0.590736344874999,0.0294820497671598,8.97364878819948,0.0801482077636154,0.0919327050092869,0.392071939146247,1011.38361041894,24.8785067139916,1012.95358190445,24.4504691661774
1.68111431598663,6.56686087525097,-4.57965977332958,5.26813576693561,-6.62989032544969,-1.4599243823485,11.9805708740866,-0.362212921073242,0.280111858209565,10.0558290912846,0.452048293134597,0.0482829711971105,-0.210233115613383,0.721506023983739,0.529890666839955,9.9057508896392,-0.0987620712792,0.199869972728967,0.118375056526108,1014.01313351309,25.5276407826439,1011.3389304722,23.9530621159119
1.70917534828186,3.63475675589536,-0.575551373062009,13.9057341905576,-5.74003988553756,1.23132869083407,17.3003103790313,-0.350535634536812,0.453117617168876,10.2466510888688,0.0607689929946067,-0.145281322402738,0.167189340532661,0.724476831833609,-0.0570405225022397,9.91689213034953,0.121324690204112,0.14370320132148,-0.123480330285401,1012.16471697259,25.4247819117406,1012.19683049919,25.713714799457
1.73723638057709,-6.23759141040045,-1.72620379523607,9.38937907098079,-1.25446401853726,-0.692891973416748,12.528632095569,-0.571813251783327,-0.878777102824336,10.2800580082894,0.0540849405027509,0.273088859413619,-0.146641121559249,-0.216398520222225,-0.248569509054886,9.41582236053958,0.191288286200489,-0.0660961022464346,0.122972525025215,1011.80802190937,24.8513201790672,1013.11862809987,24.5685250506112
1.76432263851166,3.96604763594962,4.30167995542152,13.0080365932812,-1.62012346882071,-7.65239579091293,11.5562463185899,0.113468395476661,-0.712065838127451,9.57726393968361,0.301189629173153,0.360341646516574,0.0660698406614939,-0.62692425035629,-0.156913288249942,9.97295622304,-0.0373759195551245,0.3079105559497,0.0578684622882975,1014.54219976591,25.7169603804481,1012.99913395536,25.1342858246303
1.79153895378113,2.22825794519037,-4.59339227873352,15.9878910717947,-2.37338420768885,1.21474670445056,8.37801029027762,-0.458598639600647,0.345637671418707,10.5326751968851,-0.0116240397988655,0.0547445647819185,0.185184508881219,0.384199842291604,-0.652356401091377,9.43506367160345,0.0948767569348263,-0.0763678340972535,-0.0356236003149485,1015.29290267345,25.0475606128573,1014.06796981343,25.093295074721
1.82001626491547,5.24122737110124,9.75457355805864,10.5016029605435,-2.3872001326915,2.70305081612677,11.9998774382104,-0.368455268430861,-0.82671652617062,8.93836716517721,-0.124880184961656,-0.180558645424686,-0.0941834681591309,-0.669867834849921,0.246826955826698,9.39151964573923,0.0386652427687453,-0.182450116258475,-0.121311224901707,1014.51482074346,24.8815677680806,1013.0564478871,26.0665996043673
1.85346579551697,-0.97890922467296,-9.96820523092094,7.26727249015062,-0.638775328843401,7.89623518491833,11.9542487651044,0.616906846329087,0.731937549339562,9.98055855102591,0.141534688701699,-0.139506469457447,-0.148874405352652,0.204011642029885,0.166464701376578,9.24257169065788,0.176526638890895,0.373664381510802,0.0604634458801778,1013.27099062569,25.0940467555906,1012.67226672071,23.2146023772626
1.88197350502014,-3.48439985465184,-7.1632760986745,6.57817305245795,-1.28554536646219,-3.02408876656392,7.61033913570359,0.660460667002513,-0.754394272405636,9.61109371771767,0.164597195916724,-0.0253962541983753,-0.0902505177715041,-0.237138295245118,-0.487599158143431,9.78233971379826,-0.0346711059510914,-0.136764467462117,-0.353180015360135,1011.75121797712,25.0855639556076,1013.76401917307,25.6853543106747
1.91048121452332,-4.98307904784081,-0.28660220583426,12.4550201653123,-4.42657083537398,1.09535360495623,10.8508371301232,0.102598530754248,0.431013087437017,9.63064452984133,0.0624670308737148,0.093203130124881,0.230791198878163,-0.548076383334637,-0.396549344628409,9.28363602443744,0.247020600660651,-0.42135678390205,-0.30598774525623,1013.60368059989,25.1402002285373,1013.23914770806,25.019978646553
1.93684184551239,-5.75507574165508,0.453988059324431,11.0120074938738,-4.14910571221082,-3.04758084349179,-0.592490987256996,-0.401021596832778,-0.378731392152162,9.09057463195797,0.324333288601721,0.23874624116758,-0.295159680261511,-0.0739823037919974,-0.258614023919551,10.1972638952585,-0.183497289968484,-0.268726300687701,0.087968873190629,1013.95145456588,25.2158763276702,1012.36559255792,25.213258430371
1.96312081813812,3.20837489681891,-2.88242984302295,11.8664682196158,-0.192212022297129,-0.0795468187199203,3.6608841972086,0.0156881824531145,-0.284128239738097,9.79010758203711,-0.35268813087025,0.0244486922692817,0.0273496555375855,0.057441834032085,0.0409627325971342,9.37456228668825,-0.143545056674526,0.0615879599829858,0.283752177032133,1014.4734215959,25.2784539697271,1011.08787207626,25.7574106406638
1.99009442329407,1.32825103658655,6.2549316069559,10.8775806816557,-5.36939480789316,-1.58956673958925,4.50184127898178,-0.315516054925046,-0.614806447932329,10.0536833971468,-0.255362614132691,0.100025564349781,-0.195347220787778,-0.324929439622686,0.204785649311264,9.78780905178299,-0.220568672544863,0.398427170457366,-0.177888827675156,1012.5633558472,25.1589207581683,1014.86014200788,25.0910542457827
2.02153563499451,8.63222847660271,6.32246295154329,19.0452466944154,-4.32120864804437,3.35782562286614,9.94174439983621,-0.041957165604542,-0.422607874478224,8.92359558149047,0.117036492198424,0.183856268032901,-0.283649717624596,-0.310462531663018,-0.416522481276719,10.2077389186608,0.080857299532002,-0.169630423541157,-0.104332097088183,1013.81811709117,24.986873541548,1012.58589069749,25.5606944373886
2.05032467842102,-1.69033067162116,-5.17317611379222,9.80035688096466,-1.18057348209643,1.34767390850002,10.0848422392997,0.138814831514964,-1.23117477193897,10.7555416009211,0.0445044419084748,-0.197294361712413,0.404709102261359,1.11509696189216,0.497207589991671,9.43446518831847,-0.134509961204273,-0.112539933790272,0.0287091776731357,1013.24600012357,25.4699717923327,1014.23727125873,24.7262028828056
2.07911372184753,4.18793784108801,-6.36138473718573,7.37416441481426,2.82559605029488,3.67243909682462,20.7765852031652,-0.172942559769364,0.628034897814486,10.7277930053236,-0.0632302168266572,-0.13908016074097,-0.476779600236427,-0.415841742388565,-0.393664242898834,9.03976357155217,0.110155173552355,-0.0563584662914797,0.0957498123791792,1012.91579030678,25.1013147230655,1011.22677908874,23.841832705134
2.1049177646637,-1.59057285666881,0.890434248025135,12.3280156402532,3.11959183832792,-3.46983157990907,14.5169739644848,-0.548725418932926,0.304864275710993,10.3248280468265,-0.137077522928999,0.108681992403605,-0.0124626863956129,0.0871420477999274,0.71489642373005,10.4805891222311,-0.185323773711863,0.470691292555003,-0.144379955338762,1013.12620816895,25.0145516748224,1012.73342217056,25.1523195489474
2.13097524642944,0.891794874715333,2.86239305735457,4.03855508143242,10.2044608169454,2.814286425011,5.47723079098144,-0.683665394595131,0.79436417108994,10.3749704228364,-0.231583049176577,0.156648607126026,0.343443780949879,0.495917417996375,0.405029283547721,11.0978387128087,0.11718847277483,-0.373997604844835,-0.0771251038039256,1014.8290706839,25.4575771297038,1013.04014892434,24.444636682923
2.15904211997986,2.22896634518656,-2.84874579821415,10.3978478436624,2.97740084348312,-1.42219450746192,9.0612437775391,-0.0424317872562205,0.517667888592081,10.4971754498887,-0.148275747419915,-0.0169396098558684,0.1466886582968,0.326051920656325,0.123103228225229,9.71444859422952,0.143742539289905,0.134070332331983,-0.0675163850758197,1013.9543598041,24.0761576158229,1014.90533061199,25.6667181067591
2.19421720504761,3.561723669117,-1.50717943149637,12.7719755402711,4.79292129830991,6.83616830856207,6.07918675450021,0.45175660295446,-0.57684311318732,10.1280742994635,-0.0849839455804102,0.258212073447954,-0.11917523731464,-0.0528664908785872,-0.0660507472157715,9.35585764566461,-0.245004767747132,0.033692412949712,-0.0349241988326735,1014.16493740471,24.2204144894919,1013.28109629776,24.9256118921915
2.22637891769409,-1.3763474468506,-5.82961244381743,12.7927539343652,-6.60983719450445,1.99439869070166,11.3023314582383,-0.165707052988179,1.15561314347751,9.23334090524448,-0.0875380050993951,0.0181617731539431,-0.0831340617769997,0.232005570341324,-0.053914814128834,9.53922928108306,-0.257831867316906,0.0444843497819015,0.0140973668076288,1013.77934764295,24.8183983050986,1012.54536973172,25.2497336672122
2.25264167785645,-2.38060278558148,5.92812777091494,3.91383228655182,-7.67885614193423,-6.52026101971462,9.28907425331147,-0.22948633952148,-0.138601100373277,9.39792232033012,-0.0505318128618187,-0.034818263902371,0.0399275515837534,0.468816207578984,-0.602867971471038,9.05713706751228,0.347267957217082,-0.109269081993394,-0.243745707677821,1012.22317828281,24.9227715283195,1013.12293648886,25.0664781426998
2.27855443954468,-3.38468672815761,-5.11330890274451,6.02476149796675,1.09373580194944,-3.41246324359568,14.261717589611,0.369041580013482,-0.240339627081516,10.5580729748395,0.360036833026154,-0.0451160262798463,-0.153057270242802,0.0149321694054473,-0.0755464429145378,10.1002477523076,-0.0389282413145872,0.180864535442418,-0.238885028250847,1014.37609912557,24.7183244065644,1013.68502597062,24.6415590570689
2.30667805671692,-8.6785792659183,-7.53103842552892,11.8924064074386,1.62330141303702,-3.03218036240178,6.64237298104005,0.129802218111696,-0.494808255245008,9.18909567802466,-0.101126672481058,0.0510594247117088,-0.0279219839425071,0.26265012793243,-0.323608660503809,9.6712355768223,0.284165455016315,-0.294706466400982,0.208278159353355,1012.52542828177,24.8813260307338,1013.59511659782,24.6772709141799
2.34289646148682,8.81262469142559,-13.5110191432746,-4.33848707670165,0.429221737800352,-0.432192936997309,11.4886581522869,-0.230237743991218,-0.405613882265167,10.4006561682928,-0.109986730450243,-0.149826388278265,-0.0089539239503325,-0.117206576092446,0.466031635939298,9.66843680760568,-0.36251179416158,0.125287216851618,-0.195506297531694,1013.73436573912,25.5088453100944,1013.73510308321,25.0107409470318
2.37387871742249,0.757729779579265,-2.63306944260675,12.6103860019997,3.49420943248352,-1.66669506938698,13.1241426134296,0.312266703047185,-1.51643144011092,8.53264482102097,0.211553205181787,0.2343685196662,0.0952059802084404,0.329183949888434,0.191073373112323,8.91952924978909,-0.376427713153028,-0.32076662017687,-0.0734281726933872,1012.99690719097,25.6986358204133,1012.36910509255,23.9630940238608
2.40026545524597,4.66571124656061,-0.889554067896007,16.0507870023658,5.59965731341081,0.703284472168299,12.3049325501939,0.240245751335141,-0.495134052786444,10.0006652281387,0.296024527191798,-0.0595063940023455,0.382022687277057,-0.473589496865162,0.0344757186181325,9.96602156657323,-0.247229013582155,0.228573538603268,-0.126587311392109,1012.79644772571,26.2648455119202,1013.28236522911,25.6742307437804
2.42702198028564,2.46477417635117,2.92193572296991,5.54950481526512,3.64249106184119,-1.77910327041218,16.622921953975,-0.0568825029300062,0.218014488967075,9.76167301608092,0.417194441718872,0.0586397909801936,-0.221512515221633,0.14941165145961,0.567944298321161,10.5073989821702,-0.03002349397813,0.268364401038011,-0.215375136137585,1015.52298882622,25.7306027545644,1012.0372591796,24.153223292171
2.45862627029419,0.651255082108111,3.96786207644881,2.54308248506928,-0.399960149677018,-0.904815360791165,15.778266314402,0.222441777952123,-0.220975747831337,9.96385913493713,0.10044605187083,-0.121686672245178,-0.114283433937048,0.547737275588364,-0.221706637852423,11.1336750970019,-0.0736983199655259,0.153799909565477,0.434834330262206,1015.4203547037,25.0854496548663,1012.3987999211,24.6460055499851
2.48717975616455,2.61748959175938,4.78432257964192,10.6835880825231,8.07494654039613,0.438381168576122,0.409413599083845,0.644026662261983,0.598331955019638,10.3896488860402,0.0453134168179614,0.145905653842851,-0.0906822466821237,-0.231352160507112,-0.193451565939426,9.67674280653899,-0.0525468146560014,0.12931137230906,-0.343610588962896,1012.95036553375,24.9908935830116,1013.46523321649,25.3278903583644
2.51573324203491,-1.12480072621159,-7.64014965087019,10.614786785088,-0.246603229377318,-4.55944230202445,0.433481459405389,0.626693020774922,-0.201552524470736,9.61531135693893,-0.187332322292111,0.0822658735094734,0.148575487665183,0.379160713197135,-0.29698073254152,10.288642762105,-0.310774808326565,-0.0732341814435936,0.0028072104350732,1014.84433749052,25.16988765931,1012.33292071612,24.693927978835
2.54356551170349,-1.61254211211853,6.14333564879355,1.57367990345449,-4.85879199624333,6.34965408861378,11.7949261710908,0.308462138467243,-0.0947574240632313,9.24473182840775,-0.209123889918675,0.276949036130488,-0.154664037656099,0.0989714560854533,-0.177698763475057,9.43530857816796,0.0287058086608946,-0.213445032734108,0.119425615577182,1012.848464151,25.5684329308542,1012.4755107558,25.3354751934723
2.57369041442871,3.57050116211825,-1.99698410322805,13.971034839608,-3.55637627970077,0.474035153528944,13.4732916583733,0.250743638663973,-0.141351534672837,11.2060198656252,0.206519065240011,-0.304803247104747,0.0667969860672585,-0.769433453300308,0.380015385966704,10.3539526415739,-0.0388652014315705,-0.0097516947755456,-0.229006431745603,1013.15428773362,25.236932935233,1012.47014040921,24.9442748613801
2.60624289512634,0.27239185773322,3.25162055265714,8.82525188313184,-5.88260740087929,1.71199302301402,5.46505786410174,-0.394674667856841,0.190059722280438,9.44527207191578,0.16314582905846,0.380025164877888,0.26192479011402,-0.200622539265553,0.704842127280619,9.4781677597388,0.0236189414106953,0.115682026025385,-0.0076018268319408,1014.43300367,24.7810104945305,1014.07882628644,25.630095069027
2.63879537582397,-4.36644374888546,-3.79633078390974,18.2322793797323,6.28579015501441,-12.9887546891506,9.56673984614936,-0.297124221739824,0.555710926599046,9.76208761942776,0.0391909439424194,0.135758946624361,0.150898654409503,0.431430067238009,0.595938309998884,10.2618267113909,0.137847294067767,-0.077437325147074,-0.0869606870259497,1014.21045210645,25.1944585732846,1013.78853311505,24.4629772671914
2.66866302490234,7.89967597031945,1.06706421062797,3.99100765802923,-4.43932291557513,-9.61120918584588,15.5229926985186,-0.833465106779089,0.369825340950603,9.15819448065021,0.072075285625801,-0.249422552283144,-0.275767459430692,0.128530813089812,-0.250462700589108,9.42989428195676,-0.114278368584839,-0.0510184787170053,-0.0414785272994944,1012.84920215944,25.4687124661664,1013.07806891133,24.7816299157293
2.70185327529907,-4.62153764010513,-1.14472422811423,11.1219364117822,0.493205100180226,-4.53128314747654,6.13923154144046,0.0512488657874649,0.240336975364853,9.2490990784779,0.402957363360365,0.0651786841095421,-0.123338998912475,0.545653458226104,-0.54108305966216,9.51208160947502,0.237007810687421,-0.0195624311279967,0.207934512731301,1011.95753960946,24.6771120148781,1013.13342728483,25.0853835179789
2.73402380943298,-1.28384065673682,3.330331762148,10.5094376165664,3.557886844851,2.29874825008447,9.18806608021023,-0.0602134696434916,-0.52285330115118,9.96573463996254,-0.18983207683898,0.0257348729874802,0.291640947007218,0.0482252780000307,0.638947966027169,10.2713114341826,0.161786321934904,-0.203379209204705,0.038129062932277,1012.83047629758,25.1913644269264,1014.16565530383,24.7959169892303
2.76619434356689,-6.38413320437723,-6.9086865365013,6.70960275188083,3.45657155350327,-4.17353878486221,7.12298203864616,0.427299181532602,0.141264219862234,9.37433105643397,-0.544608221873857,0.0767058660764249,0.258723123702714,0.561282492991626,-0.809939329847588,10.1390979778842,0.523380160613407,-0.0097483035106369,-0.0447047419766802,1011.77214082926,24.0139021098735,1013.47429344101,25.0232800756321
2.7973964214325,0.773490633375272,0.226179929901311,8.12809596145831,7.39504741324631,-6.87709180040126,10.9153440868883,-0.464089722739514,0.305520272609877,11.0571367128808,0.0157445054242975,0.200854207320066,0.0857257628966776,0.452964565524961,0.173993270321767,10.1509321093522,0.0581569348896553,0.337513094356745,0.353706214090455,1013.87430580754,25.2179969284591,1013.10462066469,24.2628230446211
2.83484721183777,-0.625955370721633,1.85019321323037,5.20128360967057,-5.31221336028266,-8.6112099825314,14.0953838553991,0.3682579075763,-0.655445380178829,10.4300895871468,0.259293095418123,-0.0321095660887137,0.0618172736765302,-0.126328904857045,-0.602602442522618,9.20363012455986,-0.0892409638328896,-0.157353182701586,-0.296667510001174,1014.39708054313,26.0505913727874,1012.47576364056,25.8435945268906
2.86873292922974,4.47576889869278,-15.2529185153415,2.47990926540662,-6.56791922432014,3.07182024035354,11.7450779234435,0.0519358755682548,-0.222801390017989,9.98450233721028,-0.112092485702732,-0.0282539205212768,-0.278997766387864,0.0507622559412159,-0.256905815988764,9.61029850966177,-0.13710064619223,-0.0657196322291764,-0.0490997955036964,1013.59777404268,23.9850071475851,1014.46265947478,24.1044861287261
2.9026186466217,6.60748760235722,-3.24124934701623,11.0372905578329,-3.46623665572197,-4.54260573075722,12.6066536848427,0.0384695694677603,0.683968193347584,10.0434400333472,-0.152596916490115,0.0630411603755491,0.130160706745174,-0.147456105111037,-0.0328649587499543,10.2997052089965,0.292849686275207,0.0764543118904019,-0.269634928190411,1013.60962741325,23.769228831913,1014.49152678424,24.6093035526694
2.93805336952209,0.91235822634927,-6.24443799336013,4.25908826257612,-0.923803312467311,2.77214747771973,3.40044495087932,-1.26498255839545,0.222076463233162,10.5259461926536,-0.113179502638232,0.0152891335464288,0.241395233440384,-1.00164455530112,0.213207061537579,9.24535546357473,-0.147870097667469,0.33635432822161,0.229331036377276,1014.10572029949,24.94242702515,1014.1997070952,25.2461733035536
2.97467923164368,-7.14842967753873,4.15787331201492,18.8620644307605,-0.0662549192214047,-1.75912899479888,13.3088944507878,-0.86502326991213,0.126537546598093,10.0263404052442,-0.238792298948016,-0.199610610217533,0.252526657087191,-0.629138400738794,-0.262447463672385,9.41714711603939,-0.133562901713976,0.103697498853161,-0.088687939079295,1015.28067441124,24.6306156238396,1013.89304120115,25.5994503898829
3.01130509376526,-8.61351576686541,8.56101411765275,12.3877612957172,-2.39389571165846,2.15675919723021,7.86341860421147,0.146319800496408,-0.491480724099256,9.6094998773557,0.0189989919628538,-0.283149751565175,0.0627524007919214,0.418172135191939,0.111755069717904,10.2914936773704,0.0947833872180602,0.0958256473305352,0.122727979696623,1016.33666341059,24.5783368244097,1013.59720129221,24.8221132883774
3.0485782623291,-4.18892517179006,-1.45323721297469,8.21666113978229,-4.75806662029366,3.36951203978856,8.74918857313413,-1.03142396935298,-0.758950284951541,9.1454438281759,-0.145663689674039,-0.108182153887168,0.0991579346928015,0.103173869336579,-0.0539972245430995,9.05999315928705,-0.0736323277683139,0.246863820906552,-0.209874355238373,1012.55382703805,25.0002507813651,1016.79879511056,25.0587861810685
3.09810185432434,-7.39808561261869,-7.16788546409332,12.0143662893977,-4.6632663667541,0.370257530803256,8.2796535762791,-0.380720363213863,-0.383687552460831,9.43813542461607,0.127228671180008,0.21885715394069,-0.0740850125123379,-0.211405180709451,-0.0359579838284074,9.79285511820842,-0.0954094222082131,-0.39435329878516,0.105831270102059,1012.85223973114,24.8892911969651,1012.93723118264,24.8015923019612
3.13850998878479,-6.72953585301563,1.63382466527888,6.50353738829574,-0.716326840201608,4.4618015222844,12.080194950356,-0.819257412257923,-0.0822146506492425,10.0284286823698,-0.0803799660799727,0.0262247002307856,0.0265986032324307,-0.0553406347886735,-0.127846283792254,9.74328053639659,-0.228128807828924,0.0494358828435112,0.009267772507227,1014.20379495187,24.5034078196645,1012.73828950829,25.2658071661806
3.18062829971313,2.01837118649542,-5.8501556389852,12.7875808241313,7.31195618607553,-1.55997911658731,-1.47687625612149,-0.338466462072573,-0.0463578107986401,9.60286841234256,-0.015208209429347,-0.0332005900932465,0.320157394536418,-0.825936512400134,-0.193707945057044,10.033070466203,0.00761170595832,-0.117206072971209,0.0233298888988016,1013.15628515223,25.226248260185,1013.03306517888,25.2635099292226
3.22809886932373,-2.37050807652753,4.01659152306374,2.37786843209307,6.34895292372182,-3.511687733266,16.6831830690253,0.509906813551552,0.0365558405703892,9.93495459872604,0.157688171531488,-0.0077025221615026,0.0722087099005969,0.168720144049378,0.655172414997267,9.74615055143736,0.142542356944664,-0.0062456838535457,0.19853122826805,1013.52241961295,25.583167417469,1013.78782191076,25.3979781995724
3.2698540687561,-8.01353189978364,-5.06390553737807,11.0553444109705,-2.98831337615887,-3.28396316954666,4.14370832701323,0.233492654074748,-0.073346627983719,9.14638852565969,-0.315765373951375,-0.0738030323547953,-0.098017417908474,0.557759332127261,-0.395538516070078,9.32734068989806,0.0910391257525894,-0.221846729358394,-0.0851085923798857,1013.08654797896,25.273919641386,1011.2944472934,25.3640236547592
3.3165910243988,5.50676928437221,-7.06907744996303,5.04117811847009,-3.32089016415172,0.0226953801631172,16.123721876204,-0.586042093562595,-1.08605370948721,8.96673564512391,0.186759882721779,-0.0898661689646504,0.0413351661410364,0.071046728271518,0.689344583134136,10.06270960488,-0.0798154687052135,-0.194161004269758,0.18451109809762,1012.48247445364,25.1719291951215,1012.13875883871,24.7204320492653
3.36807823181152,-0.504130379623281,-2.06232802435185,14.9704395178467,1.1227197704485,2.41686154645957,12.1318595652562,0.767774452186841,-0.465394767968985,9.63233203010584,0.282773678076252,-0.134133745735134,0.116274772196928,-0.213652383849207,0.32217237129256,9.36778769511073,0.0398364214373752,-0.389499402863264,-0.0980850111819638,1013.4089036586,25.2508410376648,1013.60421499884,25.5495939267422
3.41421461105347,7.86039471862103,6.53797434682531,10.2924659882377,4.92373162173417,-0.807548245688094,13.7927398810191,0.321961784136849,1.04618986203285,9.49465919282362,-0.119495870492356,0.178216047529809,-0.025360063637992,-0.43654430673923,0.646193499437876,9.65181396625175,0.126847163844499,-0.0162572351602367,0.29153985911373,1013.51078504268,24.702250863361,1014.82738855984,23.819353135053
3.47505855560303,-6.45319263974827,-5.16915348642849,15.699226703433,2.90075730987133,-0.0675766246402703,21.2430476637642,0.0073383348399573,0.17126822520814,10.0533024790317,0.449948874089442,0.342645498196068,-0.053579893060229,1.18056320002857,-0.16516819178203,10.3482121295276,-0.296641383432644,-0.384859299008267,-0.21329265381983,1014.07930242055,24.9203033401708,1012.44357636718,24.9474823218938
3.52868413925171,0.77065732004104,6.0095385031886,9.84044176372042,2.70855527623517,1.64258581294209,9.9395580158479,-0.139930486258775,0.0613507064027794,10.4106278515974,-0.0837375094104295,0.229423886023182,0.115378733321728,-0.210216081889773,-0.196757055014818,9.63462879748793,0.004919864800849,-0.160427240960499,-0.099646633739879,1012.59010335891,24.8712167087745,1013.82690840325,25.1116596625439
3.59400010108948,0.428417082163978,-5.33293105647258,6.92148370418224,4.32502719862512,3.07166711672752,5.22271024393108,-0.110493146618413,-0.0605393833552537,9.98495496674749,0.0051517330777398,0.255228891343828,0.0406137971712314,-0.264422330869031,0.107198025164828,9.16327741789959,-0.0956007568571095,0.22400874826414,0.0236378941983968,1012.132589902,24.5184108679537,1013.16782819877,24.7699173744805
3.64578819274902,3.05734122424106,1.96055093971732,13.5599293362146,-1.55118576610803,-6.12620574871398,12.9412131002507,-0.641510048278158,-0.124365353486051,9.65303997354434,0.167442304413835,0.0242095201979619,-0.0324038442113263,0.925385491462873,0.0212675233963664,10.3247196751339,-0.0408733397585074,0.195699269943075,0.166071327243688,1014.42222901263,25.9243815951829,1013.66487434142,25.0676921464979
3.69757628440857,5.472852105155,6.78690033810194,-1.30655271861446,2.28344328611007,-2.95913369185895,11.9127783097191,-0.563557847912862,-0.586412381753615,8.8986392240217,0.297263785005472,-0.0190339307272447,0.266708082219241,0.816864390240146,-0.407721204382716,9.87190250835446,0.017768811697295,0.0710828592379063,0.100521870490138,1010.85622351439,24.3709348446059,1013.51363286546,24.8811191632619
3.75986361503601,4.81950925026463,7.09619295709696,17.838385462005,-1.81196248697542,-1.46871878510192,10.4373058574793,0.23879141444489,-0.0393546307481771,9.69135432866614,0.124950776486602,-0.236508274968099,0.319633431168661,0.039500107168471,0.833687654100974,10.3190877808227,0.191874371479149,-0.276199734461705,0.149277838639299,1012.57157037455,25.4864689131628,1013.65203439203,25.8437265416048
3.81673550605774,-2.57170186128327,2.95913057403217,9.41514298482371,-3.56819171399293,4.65831566755624,21.5650877311036,0.393745877255744,-0.360625192644701,10.0160230309265,0.0636812660736121,0.223483090520123,0.0022599485736418,0.635661034705248,-0.306796294990683,10.2516329284564,0.0737517462650939,-0.298585952878374,-0.349817789624046,1015.64253842647,25.7654572547852,1012.70420057332,24.9824428566541
3.88051271438599,-1.49138031028334,2.7756663513743,19.4182869167963,1.48515144259433,0.609269526139828,19.3272996748803,-1.01790668486837,-0.461493692998507,9.38648075760379,-0.174626036035922,0.203603813289849,0.0387019751923099,-0.167610099591592,-0.414175752578521,10.329355528167,-0.123939472450046,0.0254897568863259,0.469089990075862,1014.36417983417,24.9309239133461,1013.3558348505,25.3006847309611
3.95582127571106,4.3050282606623,-0.904863724304667,6.83944748122979,5.75347262883016,-2.55120663328451,12.0447221542862,0.745568112989842,-0.0725694375758773,9.5707971209873,-0.166972757804879,-0.437712786263337,-0.244458352345426,-0.539013410693816,-0.0808709779705804,10.1013873019761,0.386613731639516,0.0449449924329378,-0.334154106370891,1013.04640047278,24.189667810429,1013.21012545879,24.449517868596
4.0199613571167,0.448794946020518,-1.83858446241616,12.8360516641899,-1.69523232784219,-4.83903925572069,14.4184000526939,0.007168446348205,-0.927715699050538,9.200579887453,0.228996463508705,0.392974982234216,0.302217340713928,0.395795249684704,0.241664061150315,9.77044501228317,-0.195514823365937,-0.12624935690127,-0.163784956805868,1013.01257286281,24.9000316865736,1011.69154792427,25.2823905670645
4.09311866760254,-2.64069423099286,1.6110665342309,-0.422287361678418,-9.26858680888084,9.7039568949985,-3.26259494117802,-0.875073222498497,0.407949756015622,9.28425429840727,-0.299839563400335,0.107905671866855,0.0476245442352892,0.317156714536442,-0.465071124645902,10.0343326220273,-0.112349032774938,-0.0645015525284351,0.253672181460681,1012.44790710965,25.1888052549166,1014.03582376139,25.5716166341633
4.17254495620728,3.65938173420878,-8.44987164028317,4.77315970080216,-1.93106885853267,0.867075308221056,2.2515631071023,0.390942983583297,0.0443591568439347,9.99899693697637,0.117370742358337,0.19287272496169,-0.377225795966045,-0.447370459531765,-0.987414561253612,10.0491373358387,-0.0512069829981347,-0.103414179614647,0.0908830536740067,1014.28932315604,25.1868015424259,1014.70679584167,25.5229179338017
4.25150442123413,3.85355078388324,3.67506934405375,10.7461176552499,-6.43601502681772,-6.92755890628181,7.61872399154792,0.725392293919923,0.181981065995262,9.66131977017807,-0.167252799572484,0.0539453966657946,-0.280253227363495,-0.0578570008183677,0.345943537001928,10.7891207602849,-0.0399837213561631,0.230644502210219,0.147237535415581,1015.84518543908,24.8802340484988,1013.76306037547,24.9037517226951
4.32119035720825,2.55146978847836,-0.606962475840916,14.1536076924047,-8.8200710304894,-3.21276070880113,5.54242593830785,0.151871459987006,0.72977143955359,10.4478280329672,-0.128710154192846,0.0979011176231215,0.110698197722694,0.477412036752627,0.34430616909176,9.81779706208677,0.0708905468013779,-0.0354078442521102,-0.262806919180222,1013.0639927426,25.4877623439938,1011.28163980242,24.6114595862449
4.40383863449097,-4.16888419764045,2.76692344187405,7.67982520330353,-5.03672836885444,9.38899650587084,5.59164321827989,0.336281044617912,-0.432587182160095,9.70410982745484,0.0077286031678789,0.227278745804166,0.162701144733323,0.233891945399314,-0.575614465210393,9.39641859434167,-0.124148882381123,-0.0018437231206123,-0.222632767176879,1013.4065874206,26.0527800114373,1013.48041558633,24.3740060699245
4.47867774963379,6.35972432343906,2.70018181784582,7.06836016250982,5.77510662662521,2.93903853241608,5.86098886971578,0.610636676621928,0.126758448052617,9.33960097229269,0.284984328286561,-0.205751615170374,0.0678741565051258,0.564470675846597,-0.82044282803109,9.28322539535419,0.180268156375367,-0.300341337953567,0.165742889069365,1014.06662317018,24.9492002757345,1014.16734695251,26.5349763144845
4.56059455871582,3.63778163972233,3.20440481691887,15.3681915488002,6.80878709933124,-2.27428766569137,5.4476843140694,0.134505483276755,-0.14367381921355,9.86936713270062,-0.111002295599343,-0.155868047556768,-0.0561122587507742,-0.803436445695244,0.556469677708798,9.75579761724977,0.143670418678803,-0.147900778640886,0.0544203950499865,1013.5355055659,25.4752944024963,1013.02785776611,24.9131363286833
4.63743543624878,2.86907861637271,-2.3019821548784,16.7302864592871,-1.32433552704036,-2.68029116360508,11.6827359970716,-0.544654077421899,-0.437489966862563,9.56595959476954,-0.0731951032742833,0.240210715406738,0.0503797172092202,1.09712049894898,0.201044635128885,10.0696232734976,0.0157234493754341,0.352300439982377,-0.291073223172174,1012.20708568441,25.1151342656194,1014.96006492809,25.3903092061002
4.71319723129272,-4.98821258452188,-5.48493895363035,4.47046664397073,-4.00776582766117,3.52445567527588,5.8954880090656,0.816611060994546,0.142868620857627,10.2670097845555,0.143851355980945,0.144455266626886,-0.139372895736946,-0.737555144354944,-0.750420206079037,10.3367316387615,0.0199665159140631,0.0811175057284747,0.103137028798752,1013.84738133583,24.4782228291948,1013.12964848046,25.209291465381
4.78890895843506,0.279562264667873,2.25672463833747,9.93492038826754,-7.97630628819824,-6.62345838801353,5.67461269869289,0.0091834249828956,0.0957670635978358,9.536025467517,0.0774647408656321,-0.328987828455558,0.31205019488112,-0.393632753580646,-0.718807928295981,9.33683535212369,0.242198397121816,-0.136730581501901,0.457920356175742,1012.67549189234,25.5938268338502,1011.70427335929,25.3842816451611
4.86959600448608,4.04782227195061,-0.933257363811913,16.2399429252408,-1.09032193744169,2.30524449411026,-1.22509801925698,-0.341372709944884,-0.0980715973027987,9.89338454130578,0.059785345442217,-0.101378234537104,0.150260191619592,-0.695043472397828,-0.512939714046299,10.1034319182266,-0.255607776661128,-0.0160092749821896,-0.0140577360371726,1013.14187541101,25.4885101033815,1015.78489947934,24.661214912751
4.94577169418335,-2.26481926300157,-1.32168401564508,15.2264267867644,1.77122797747671,6.64839020651007,9.85097238855743,-0.331786030007871,-0.533054665965426,10.0644825835493,-0.224945827899909,0.234548176381915,0.256079637132892,-0.319881849882963,0.234759468835507,10.0889288066685,-0.252190803860196,-0.35969021354853,-0.0839765701960081,1012.34586093976,23.4854213318509,1013.33227751104,25.8034505495139
5.02708339691162,4.23165950781857,5.29559421898606,0.750856319684369,-3.54537632448136,-2.02436838598536,7.19536583818997,-0.0577211912334302,-0.231336426874468,9.5520339708191,-0.221599560183899,-0.104138877595672,-0.207448631413233,-0.11110904556683,0.101812463774662,10.1877688965479,0.133800740433194,-0.273508910545825,-0.0288285152911912,1012.57139168275,25.711598802261,1012.47783846278,25.8228221802954
5.11286640167236,-0.512206598474982,1.46024533784225,13.062842982808,-8.39659154718937,5.79491673551371,11.0095241529619,-0.76125339926379,1.03214034549909,9.36964631596558,0.113873866403304,0.102280435969306,-0.27115332314852,0.300870855659997,0.219348534084347,10.1175792996201,-0.107360797712866,0.109709995998437,0.334892518557796,1014.33191586822,25.0857041538057,1012.65694868498,24.5812600794646
5.19404220581055,0.411783190657274,0.79665545636963,13.9688745472808,-5.33666570021919,0.795089602664418,10.1452464826918,0.733069301053574,-0.712817562287696,9.84817433087024,-0.176827963403425,0.0844064695571122,0.120306444667303,0.0857796878868218,-0.956143973843075,9.92477690847899,-0.0219103656083802,-0.30618849705483,-0.306776797433238,1013.81774305739,24.8780326520104,1011.55159705789,25.4811109861131
5.26753044128418,-2.04326550858241,0.741807474504377,13.6766933593461,-1.98635125242095,0.375962938841775,8.23698011158826,0.424770374840472,0.0593962875837684,10.0785901909499,0.130045226152272,0.257288516161274,-0.056059420805988,-0.767763208203703,-0.433526609541453,9.36439189640646,-0.011266535580373,0.131238620495133,-0.0004583285368746,1014.33233944158,24.4060249729618,1014.56577375211,26.1176911956755
5.34271574020386,13.4101796107442,-6.58786297675424,13.1501086178696,1.2004885856096,-6.22231069941794,11.673336732359,0.37363025895174,0.823743055742314,9.25831886996183,0.216215959895292,-0.0407361491215541,-0.216225262875402,-0.230802670465186,0.608208078086454,9.62467120177692,-0.165862944674694,-0.0321439777756196,0.0500877012215916,1012.07426678209,25.3470612017227,1012.71483221157,24.8883732909545
5.41736364364624,-3.93470600769681,4.64433887548163,1.37897928049229,1.60818923357252,-0.937439039506429,14.5503287368947,0.94277001892043,0.407920136119133,9.25484365867217,0.200170196401707,0.225166979854671,0.0355228989032787,0.553619617035128,-0.788446117442415,9.47739610092594,0.196676229341029,0.372866182453678,-0.310627030321476,1012.12334237372,24.8233233351617,1013.12102800619,25.7067421324897
5.4922251701355,-9.09841430448433,2.44890019468306,7.19682901373791,-9.19401716373605,-9.43973891723525,11.8292775292272,-0.810438289423877,-0.463875963534276,10.0508254514622,0.0382269370889309,0.082503864337921,0.0386413398608933,0.673013066227531,-0.344951743605489,9.07942193939158,0.0519802956427624,-0.339356567499957,-0.0649374708757204,1014.25820063856,25.4455673597373,1013.04633012044,24.3774560788276
5.57063770294189,-4.07547175016955,4.54799901703294,6.54573149492804,-3.5816429627367,7.2374727297132,7.89221267240385,-0.0982298404503645,0.0582327155091859,9.40672394271313,0.112118789730992,-0.0875103119907228,0.184220139244238,0.343727910859011,0.184396074753282,10.0222273002283,0.0823332578839418,-0.450028099367065,-0.0021446508360156,1012.75011636491,25.2405212956953,1013.9620881704,24.4866945344215
5.64697456359863,-5.75339880193335,-5.2855100523375,10.2497844465889,5.62189993884886,-5.93937489898317,5.90950991352036,0.426942023676738,0.39614859547903,10.6519347482318,-0.141915444981326,-0.083586311339467,-0.0242341179328991,-0.0248957726288742,-0.0961378952061904,9.61832655845942,-0.0807374066698964,0.522653097936824,-0.255972606740408,1012.64080319554,24.9183374302905,1012.93308182213,24.806730521752
5.73137950897217,0.402217021859939,1.53601863037208,17.8135351849998,-5.6506304333402,6.37687278631393,11.0771026934586,0.51143289598989,0.055282314449386,10.3985216494332,-0.113317309870322,0.0127633362860661,-0.215514996266253,-0.540024431548412,-0.0621727534577016,8.61579338297269,0.087675246786657,-0.0780563980863252,0.0443098245496839,1013.18293039721,25.3976886582884,1011.91183453096,24.9110029918624
5.81276321411133,0.451299223623803,11.4112836521504,12.1209817492715,-1.69119773081007,-5.97003090872584,16.2153014414318,-0.573217372761113,-0.504446888618326,10.6410308830356,0.0401925113428862,0.0296585951033511,0.0773033691430356,-0.95408336675693,0.364756557957755,10.7630646388339,0.138509309025149,0.208139097913516,-0.0116094635436046,1013.82031646523,24.9191987102463,1013.70700912204,24.2388115942951
5.89659023284912,13.2075589717374,10.6554895223616,12.807191339021,-5.04690388528969,3.98564968354411,13.3527572490002,0.548348853179611,0.812199200578961,9.57311701330972,-0.0333564328454784,-0.0968560697456553,0.173489271927885,-0.0449664788964268,-0.330832731079375,8.63473491680202,-0.153643026057791,-0.143861055146393,0.123364217989177,1013.0941544033,24.7453476667654,1012.43617431208,25.2927481129284
5.97667169570923,-5.82930220346603,-0.135739703146442,5.45370998229813,-4.00171579948404,-7.39463586487527,9.04109980853922,-0.118430910664052,-0.203100151861357,10.2242800115508,0.142718624248306,-0.0509811570083713,0.142422085407324,-0.703163610502736,-0.020624465495081,9.20348005308557,0.252843029946416,-0.0646516298105364,-0.294104409735321,1013.23876993566,25.2332079216425,1013.3966677306,25.762371122358
6.05394983291626,5.04609936062873,9.79373883865049,7.21481118013295,-8.96470477186716,-11.5983101779319,10.4670822618435,-0.200768333300065,-0.975377705632514,8.83069775204413,-0.12393806047498,0.333350035308082,0.0668383731787994,0.242752613904436,0.399031721217008,9.82522713453464,0.236662707236142,-0.0190633922610357,-0.0186083780672752,1012.94338936025,24.9363527427174,1013.78774896449,25.1000621295899
6.13389587402344,-4.94282237548656,-5.78700609328884,13.9688502102881,1.5118340030581,-0.692025055941765,13.5904216938532,0.236899633764418,0.199574085867304,10.4780834515886,0.169120207085102,0.126773922133589,0.230706810378254,0.0781150481279494,-0.60556925726693,8.9023085961924,-0.0009831475792506,-0.0072109702904136,-0.0667066018182487,1011.93121827514,25.235891626639,1013.80944279633,24.7966463973917
6.21051168441772,3.2317618339775,3.18108557515604,10.9411715560533,-0.181922524675759,-5.77352531860548,14.6350902828204,-0.346393390452029,0.495890049585663,10.0849823588398,-0.179592043992475,-0.277772305695957,-0.168259490719651,-0.25149785882745,0.25189880850484,9.57432798024267,0.050785447595642,-0.251290654792845,0.308348674595964,1013.44937444167,24.0673771041242,1014.10380221775,25.1260673507527
6.28948831558228,-0.160321255073876,7.91293603794215,13.8486728409545,7.15213221182487,3.84305214595124,13.6792051262674,0.320497551745721,0.0984333970077707,9.32359630075799,-0.0002251424125556,0.172754409753079,-0.0226114873725395,0.134023793360214,-0.797390878573218,8.90666619572807,0.068535403729891,0.0839587412635326,0.151771422520574,1015.08048806873,25.0518781012118,1014.61642473771,25.0020978264183
6.37626695632935,0.631106347194978,0.659889265648992,9.51864932037772,6.05488268402034,6.35792000342505,10.0026490752992,0.201629680718123,-0.652482594438834,9.53260382977662,-0.0417898568815789,0.105215030192519,0.223702076022717,0.074752763007618,-0.352660511256634,10.2688302912874,-0.366795238382638,-0.15276015614112,-0.0620710223953695,1012.09605123505,23.9634242962518,1013.66349225141,25.0223712330302
6.4559268951416,8.98859327263415,9.3025286572935,15.3596184432488,-5.31056738719093,7.78326573720806,4.08205325309403,-0.205800872558866,0.577327056971539,9.74349955162953,0.292023218109628,-0.268023982542924,-0.111780350892395,0.557805922335961,-1.00752240629785,9.48487791506972,-0.0222152543971392,0.142065060458878,0.0805288875247917,1014.72868813328,25.2230653080121,1012.8914010277,25.5219509936141
6.53477764129639,13.007113318159,4.55846332608777,4.56033237276418,1.69527938358448,1.38268127618779,11.8100946732983,0.296248572833397,-0.089779337607746,10.0291566815756,0.350089055996652,-0.423883606687054,0.0179311720863865,0.109238928458859,0.700562869499452,9.72682938845752,0.146465172219238,0.155070596605635,-0.339736631322886,1013.50251006619,25.0089666042437,1014.06430954301,25.6855887814316
6.62034893035889,-2.77307692287073,2.3743772288679,8.45388284596742,-4.01933700279485,3.41868199939366,15.0350169890641,0.346063567388265,0.0843911432173547,10.1457056849895,0.178847752574666,-0.0798603046745362,0.0317248675770223,-0.118890292664708,0.307354971328168,9.91897892236717,-0.0262874579760916,-0.0554200130623802,0.13697551712848,1013.47143304145,24.7413280550408,1014.37295450553,25.0745037250211
6.70282936096191,4.33029159910091,0.341317827572149,9.6174077176425,2.22067201084624,9.1233890930864,7.48844573658223,0.246245535626354,-1.06584286886263,10.1748002348519,0.0533506453052003,-0.130025452349932,-0.180686100105215,-0.272902004700675,0.450250364419805,9.29722509079506,0.360526121536685,0.199817119924443,0.261891221610493,1014.53041666767,24.9721575633895,1013.07657068016,25.5823766791362
6.78653860092163,-3.53469963873158,-1.34268014638684,8.94916010788136,4.40304101409839,8.33246837171555,6.9217351734443,-0.0717529819527803,0.193538691361863,9.30302955532422,0.0179355416335522,-0.23431823644963,0.0979048520245199,0.423881954967915,-0.158955682463582,9.66099188298997,-0.195050397302057,-0.282919949719609,-0.0399740903749508,1013.93197527271,25.2268071894831,1015.34966341486,25.612406330988
6.86966323852539,-4.57182196109054,-11.3342726105257,12.6433847719694,-2.97961704515056,0.422818665721336,14.9865739370236,0.761325460959481,0.192795293535705,10.4003272811316,-0.0250499023349516,-0.109956213679455,0.197103968952665,-0.701500966632441,-0.0021907082496941,10.0698924009223,0.194454605244257,-0.254124575334953,-0.0763564087611326,1013.73239143672,25.8901474766918,1013.11181881398,24.7730935781291
6.95535469055176,-0.330147886187312,-6.32512784334884,11.4598161710653,0.577185256722105,2.17860354576399,5.35915692963111,0.36320254536196,0.222199402737313,9.15748945470488,-0.193738463631621,0.0780506318532047,-0.0785063836251244,0.518637197230874,0.0389811222727871,8.12803529269558,0.222482025113055,0.0579562782402493,0.18570987388941,1014.30302437393,25.1305159157292,1013.87108986248,24.9009754963827
7.04123973846436,3.13749179622237,0.0996788534350515,2.85260551384111,-12.4111336489352,-0.202219932077711,13.2828897043179,-0.157708684904188,0.503331133116339,10.6191397235776,-0.147155845419468,0.130457045993117,0.22627920298913,-0.729800901044335,-1.17359430052191,9.34281822896694,0.0064173781553067,-0.288990351626445,0.0992207649368399,1013.12280581612,24.9509627054532,1012.95260155494,25.4405245034131
7.12899589538574,-6.62803135431349,-0.39284856520327,20.8643158220113,0.334490159477246,-3.11373078640881,10.9792316163952,0.1302028676749,-0.0481376868358162,8.85314810800567,0.135509940813836,0.145790977702783,0.276086088191662,-0.449217192859044,0.141029411379971,9.80201205730856,-0.230320661320169,0.464361464251682,-0.071731707435604,1013.92991339154,25.1857013584458,1012.41855465616,24.7227193828419
7.21440696716309,0.88375561310214,3.71141130566442,9.76193708105668,9.41798832979207,-1.6380792873536,10.4220772859931,-0.487239793787867,0.393408758474203,10.0440259005438,0.0847729276326872,0.0246889883124663,0.0309098963538828,-0.518872957986314,-0.233958495307264,9.96087522254556,-0.006734469415161,-0.256407929719675,0.186742242689714,1012.90513542213,24.8263267183816,1014.38913869776,25.5263023681945
7.29994821548462,7.32672496676358,7.4293355679788,14.8675727589443,2.07662175754424,-4.64284263448792,10.8767285591097,-1.41479789111172,0.390985502095331,9.59659400875978,-0.326276988645679,0.152650386526837,-0.0908398917677498,-0.312088750296233,0.642924426448025,9.18827783010947,-0.0676984114697872,-0.0726830604324545,-0.0996666229551278,1013.57649142083,25.8952979701395,1013.74647229624,24.8477937593472
7.40205049514771,-5.09744514783068,-3.49065203497471,8.37120991069799,0.451941259001599,2.2425743826676,10.008058753049,0.404155667210767,1.2694264386148,10.6347592484506,-0.0696723965631511,0.177978628285603,0.0590591894285923,0.372215292580139,-1.11774586506603,9.17321028025285,0.0456486042975305,-0.0773504961263452,0.0451278957534285,1012.93037045817,24.9585550656717,1012.94850231312,25.1651723604373
7.49436044692993,0.926234985618192,-1.03247799022097,8.38213618033185,7.33672448854737,9.23992948988641,5.95287328222902,0.131026870921169,0.288272103618541,9.4807136158096,0.0005623287842073,0.048900319341473,-0.0236630808387453,-0.294579512377429,-0.099586468724413,10.3463725215635,0.0186550377116671,-0.147715171024033,-0.158829884150382,1015.38740136746,24.9511417490026,1015.2327370808,23.9450311710279
7.58344268798828,11.1905621365431,-4.24553883106091,8.84695711350681,-3.16917329158182,-4.77410729479702,13.6771608007834,0.0196309498542534,0.40878423644264,9.84459024677119,0.195539373665468,-0.300463033408295,-0.0159862386470694,-0.0609647117737113,-0.0879386539592228,10.0082841978703,-0.379144421352775,0.135258226739541,0.285734947381903,1013.37189212918,24.7614761876921,1013.13830562118,25.1777062267089
7.68922519683838,-5.13140067508284,1.65105827580396,2.72754721544191,-4.57174903300474,-4.33328296068198,11.0608316229692,0.624459561507703,0.88149634278799,9.065456956832,0.0710106200603828,0.0476781529284292,0.308052794139888,0.863212920821755,-1.15316899480768,9.74631167253459,0.0259010358316202,0.173721884260864,-0.356689468205897,1014.46798309075,24.9192264078396,1013.69906438389,24.1294389435462
7.7831563949585,-2.50757084757342,2.08795364445317,11.7549125925445,-0.817604059228696,-6.41535145459039,11.8804111654639,-0.186461277132083,0.0066203933134212,9.22416998067661,0.249037386275662,0.0310365791653578,0.0066129329129182,-0.997336116213799,-0.107727432358858,9.89540220824302,0.194403555277546,0.133742000759701,0.176798276168116,1013.54793750582,24.5280136676163,1011.30319167783,24.4506312080582
7.88525533676147,-2.96175703326316,-2.16964494182853,1.81297159611125,-2.37517463067928,-6.38861681919027,8.17020951999485,-0.420505561505588,0.392780776989513,9.66537230027465,0.264142804132154,-0.222501771642106,-0.424791717774081,0.248988380167947,0.0579828876253111,10.5967215479407,-0.0499090497409474,0.213677822177565,0.193188079915349,1013.78526350609,25.1991929543436,1012.43642390704,24.7325483084743
7.98178720474243,-2.92793786615726,2.84055216614522,7.19773874784054,2.18308993871647,-5.11667520660758,5.97719352937893,-0.138000661909721,-0.438413451223823,9.24840961980124,-0.0346519273222368,-0.0458963955705518,0.138046850800339,0.515273556730816,0.891533554601815,10.3339235155171,0.258063170485087,0.177007073138762,-0.199440346012992,1013.73388913759,25.5547885104953,1014.24070111549,25.3025218834022
8.07943916320801,-9.2167421393346,8.16059237432912,10.0581352119797,11.1894642342961,-3.93787077352543,15.9988061793381,0.0321707188489614,0.28844392853613,10.9511655463457,-0.43972011163224,-0.248094559555846,0.100476657667735,0.468760375743739,-0.289394422237829,10.0101788445069,-0.217051108999817,0.018822883663694,0.0776480310883872,1012.50182393498,24.985183934273,1014.44316737652,25.535263187958
8.17422676086426,-8.2992876217923,7.64462636894778,3.04854679907035,-0.0488861257468649,-0.287145033469615,-4.99072401573815,0.175799318071046,-0.716669223746574,9.49793259998142,-0.129029417315251,-0.104905645166496,-0.203744043318371,-0.561725312687706,-0.689311156195137,10.203788483588,0.112562943572664,0.0626458785657821,0.201747831922317,1012.61729106289,24.9815229404208,1014.9371223263,24.1422935672333
8.26109790802002,5.89442979523039,-3.63458973627832,2.95587052720164,7.3852339374253,-6.75964248718442,4.80380197884168,-0.155624635165001,-0.328354294699389,9.59218863813484,0.116000311304918,0.238964979551992,0.0590625862901779,0.0906471286154008,0.380761013343791,10.4156751323621,0.142080948111601,0.207067501109972,0.0792014218951483,1013.7000500374,25.59985821563,1013.08343808867,24.3527539857463
8.34902095794678,-3.27824103597994,-4.86421492906216,7.30009838770668,-1.07246309288976,3.36387756268648,16.5485550122399,-0.80309355664976,-0.0676027241992283,10.4196116916426,-0.154946264585134,-0.377988587345999,-0.20717520970363,0.508678614389249,0.168940585694589,10.5686963517479,0.256965373634214,0.315802359285758,0.354882750523038,1012.85263154668,25.4057467118422,1014.83778674114,24.0793509117479
8.44160842895508,0.731293848146705,3.78856449847519,7.18910145102527,-3.80992817603191,3.713717723334,10.2420578882791,-0.561377265582146,-0.111900854450908,10.5264724460507,0.120391206624554,-0.0450551921789666,-0.190982960585087,0.53109678732492,-0.350047126650548,10.4000225619179,0.0440061408980309,-0.0902900037074993,0.197420926363574,1011.74403403819,24.9745459789861,1012.34236508085,25.7507131993614
8.53503608703613,-10.7436089605753,9.87671328776697,10.097409283584,8.30932072334778,-1.67999569865033,9.1777207363433,-1.03401903745272,0.404959597203676,9.21143807206601,-0.171455385420212,0.0182428178290555,-0.317964145775807,-0.38004218601625,-0.242045158631427,9.31376996964712,-0.0615471147651091,-0.204840179148092,0.0371898577151583,1014.71628149122,24.4541638783272,1013.61326930292,25.1172447643845
8.62744808197022,0.220352232956527,-3.30332045070726,5.62792630080171,3.65562648083266,-11.2790514385274,15.9277885892688,0.698632747776778,-0.445872762876215,10.7225536576709,0.248639249920931,-0.438494761246455,-0.247684770472952,-0.0175168370788482,0.650887871202939,9.59558080299136,-0.23910322399466,0.305021197526289,0.17520472657109,1012.99986746573,24.2372703321008,1013.6791730401,25.3323444844635
8.72293758392334,6.87632790520567,-1.38776602298041,9.05723426357702,-1.04103740192428,-8.28273310570827,6.25344713343288,-0.206818264855261,-0.270530198943048,9.9692138855304,-0.0512807452365033,-0.216755165452284,0.0516504002838398,0.0281833914569852,-0.007096733121668,9.09948117805262,-0.105759787533703,-0.362711288558025,-0.164981414026046,1014.77771597882,24.8664668518183,1012.77516684314,24.5693740843221
8.8150749206543,1.90568309793602,-2.06111884374109,15.9656941044299,5.36570267869912,-1.23094035588453,16.5561325698363,-0.615794334295822,0.0899629067922206,8.90292198430535,-0.0454188398110652,-0.210180263905446,0.0868372242737249,0.0433803336276751,0.288681147637052,10.8178365843315,0.181542607505222,-0.511865952031528,0.317132745717955,1012.45664057641,25.6013138702048,1013.24915835867,25.2503625953949
8.91412162780762,3.31836734428361,2.13663893463946,8.7945099933638,-3.3445106040935,6.53841823193799,15.1557611036316,-0.720388437137038,-0.417406971568831,10.3271686797721,-0.0979182097626511,-0.252806010459367,0.0929694101565442,-0.895598466539251,-0.57571458142178,10.0733546812802,-0.0789975539343255,-0.0691839919454856,0.0824853169645389,1013.68926430934,25.3251218960218,1013.00950024327,24.1665890726715
9.01089954376221,5.11410981706245,-6.7685410717308,16.6992222975116,5.11833649494896,-3.02361106714718,9.40671909879756,0.427536035474802,0.179628219135971,9.5992138738116,0.411257924666325,0.0288704879398664,0.0520874261441797,-0.0694553777433506,-0.286365759906539,10.9188809734876,0.0892617217937739,0.086125698715763,0.205039430793646,1013.70777613378,23.5163628702931,1012.68970969121,25.2062123067488
9.1136531829834,-2.51457906371005,1.51241972030057,10.1101777547548,1.31536422703357,1.06753943786468,5.33887916784767,-0.559563583729327,-0.229045882741146,9.40543623097942,0.114482731740667,-0.214761553955617,0.173065043568998,0.0160142973941802,0.566495856915165,10.2128969286242,-0.0472837774792803,0.0769378292958098,0.159590703163773,1011.78906597066,25.5344090943451,1014.95180408419,24.8406112617435
9.2106351852417,9.7060661958988,3.07313393826716,16.0193443588247,1.33004282414325,0.390145252119547,14.0767055661069,0.485833084251044,-0.0720737358918429,9.19023089735201,-0.308461111599237,0.021385659950477,0.0731691973095735,0.0273702771532019,0.165537959052374,9.00280062091596,-0.155573393615429,-0.194639918275543,0.0482198425474022,1012.46715613251,24.7716974286329,1012.79606469491,24.7159502107275
9.30730152130127,-2.41942940055296,-7.14740538601078,9.70921917481745,2.37968913911117,-1.99019978903227,15.5374115767872,0.43820008901665,0.86689575803093,8.76597814189161,-0.101522095904168,0.330933627210973,0.286844518929563,0.161634612256025,0.212163929140194,10.1510844636563,-0.0572184695783965,0.213620000588598,-0.0959077750263022,1013.05078644982,25.4134871529583,1013.79758672429,24.861019617002
9.40590763092041,-4.44443863903584,2.81735280126584,4.80729903226328,3.62958964949359,-3.04466067526428,-3.52436939379979,0.478065068137111,0.238361070281199,9.96511601160123,-0.0669988289498694,0.0294757901815281,-0.171054867882567,0.843073338908901,0.0179792520612633,10.0574269294487,-0.111713085015318,-0.0276151618425369,-0.26012576515855,1012.73642034355,24.4152234421932,1013.52208568205,25.4809374263296
9.50475025177002,-8.41435768199355,-8.99437781290364,6.30451553843923,2.09782986899785,-0.200694921790043,11.5680419577398,-0.73872218756668,-0.292051472482837,8.85171727450196,0.132886699682429,0.0048536080191812,-0.0773170603311016,0.193150019512639,1.02068304794006,8.96590192830386,0.141974019806397,0.220209093295663,0.420850324996798,1014.61027793154,24.7649754032515,1013.18461751888,25.756952724713
9.60533046722412,9.75313492878624,0.0250145160564809,9.54675128399707,8.35752565476475,6.57059779560053,5.57563861310545,0.65999830974193,0.502009037294406,9.50050149058805,-0.0063278450385102,0.345360807401047,-0.241011010771835,0.0963393002260006,0.853331748885423,9.517976929991,0.0628715309619644,-0.0526066617845523,0.376365225016093,1013.1899603291,24.970682305475,1014.23239521654,26.0582159525159
9.70862102508545,-4.24718280107528,4.08144879381972,3.77544680215575,2.6268740519411,-3.66173669971461,16.9268708086966,0.46645380918301,0.0394784822474599,9.18124213551108,0.22773375191017,0.13606372282252,0.12755665841921,0.622162601047539,-0.414721135202253,10.2065293986984,0.103668503214441,-0.327629231818591,0.240465689914195,1012.92391689006,25.6695848282632,1013.40866082859,24.5341810492229
9.80991172790527,0.913109433450094,-1.79133228812469,5.71030079129593,-0.731220142918164,-2.77808741665168,11.2340216545863,0.257345403047142,-0.59917119956232,10.8601116278449,0.0860609673589199,-0.201847012243867,-0.467918917910982,-0.150960531461261,1.06747616622134,9.55160031386914,0.0380321126314099,0.111909757487871,0.175720923815727,1014.94129804198,24.9676834320783,1012.09765548939,24.9801821405868
9.90872287750244,14.2044627837312,3.66654464651216,9.87978807938333,1.26906755469411,-10.9911507426881,8.77253003715265,0.875318325376172,-0.958775085037177,10.5617645225128,-0.120359776305594,0.0072752939692368,0.287668668197895,0.612157815689119,0.262386830919836,10.2187297045719,0.140157459967204,0.209847080543313,-0.110874377205174,1014.24451914388,24.3386785648397,1012.82421835204,25.7657009828052
10.0124349594116,-9.69149784018015,-1.27750309117597,20.9989170208104,-5.43554034588528,-2.5312030067225,9.26818526218329,-0.11079772762657,-0.661755771179609,9.72083896252455,-0.0694035187630128,0.102889422297318,0.228293488388226,-0.153882705746622,0.492744784266615,9.12463770273968,0.17261784807926,0.163091350866145,0.126210245070539,1014.30997613777,24.8487636013562,1012.31703786306,25.0584227418847
10.1110954284668,0.629554775553581,-6.14714076216369,10.1789918512002,10.331907593913,-0.426281318042038,10.4440249119015,-1.04695598319227,0.0131733028281296,9.79707324589218,-0.13826593818867,0.0655464838337072,-0.119810627564597,-0.259458965890878,0.121496632726849,8.49955969007151,0.0351796859345989,0.244648343582722,0.231241352218529,1011.17397281795,24.5956484374319,1012.03351179529,25.6317833512349
10.2136325836182,-6.42549340286218,-10.7273605338688,17.6644852791138,1.91891451362827,-2.05879606791742,9.39647337871549,-0.291812856044046,0.417591085802877,10.0891892771492,0.406628120180343,-0.158784056071825,-0.343840769796333,0.759223443397571,0.902499170812017,9.45800568433377,-0.292071778436732,-0.039180510916036,-0.0383679495142841,1012.87169617701,25.0739358983075,1013.70626467011,23.4669054881196
10.3147487640381,-0.50622653998507,1.64780987404953,11.4974573471871,-2.76248270059409,3.73261289386605,8.31340828250196,-0.508978622047694,-0.658607240578188,9.11695960386118,0.0781783737365485,-0.0166643616671201,0.0687137000498668,0.417269624647422,-0.450713209582434,9.29408969789204,0.0435463266615755,0.0691236613129212,0.194963892862213,1014.55960309072,25.0123981159194,1012.32736004737,25.3385125418662
10.4173707962036,-1.9520314516733,6.75895801410793,2.71762195684973,6.10960706955107,6.31792555659343,19.09559209148,-0.384421073275944,0.0556174527870216,8.97847983939344,0.234458084337562,-0.354307464793755,0.217729511817917,0.734044224856412,0.328382041826334,10.4389051989195,-0.184277732606376,0.443255779964153,-0.166812283636003,1013.68143400459,25.3770289909142,1012.69712479715,25.1145609894827
10.5236530303955,-6.96645989507291,-3.58259598013989,0.431737714767195,8.78535879931945,0.0620411231571874,7.01995072047649,-0.149911720773259,-0.117408375411115,10.0063021846633,-0.0931972300934003,0.559369613517465,-0.0775517928203455,0.940902289032957,0.151452638575473,10.1593371406568,0.0164975100914603,0.290188593044536,0.176250767642586,1013.57010476365,25.1626204414157,1013.35268881904,25.2976595545327
10.6303482055664,-3.88238372306244,-4.80791608374456,11.9711409202252,-7.54387551833097,-0.875790729921542,15.1357757498039,-0.41669637740337,-1.43593986295521,10.1960182711984,-0.138964711190385,-0.253815404181724,-0.355768732991316,-1.18112626516684,-0.0976231917457803,9.20735724198086,-0.0494802764279629,0.268681144171259,-0.281904902142833,1012.69285831967,25.2199653681854,1013.58624328523,25.3456546616817
10.736988067627,-3.58405632163773,5.06045674625592,9.7760520381285,10.6249465352735,0.142405103904818,16.6985526907123,-0.634977675010617,-0.531075920625034,9.59208751455434,0.347418366114899,-0.170130105173922,-0.231385784386089,0.646578759873983,-0.183290052623945,10.7988521270237,-0.242523783820691,0.0682586753659814,-0.102161227351682,1014.24034680394,25.8731681426848,1011.84893450712,25.2605256916592
10.8431568145752,5.26398830575055,-10.1564381598719,6.02473024075362,2.76839774261695,-9.86381426912219,4.07911157181583,0.448406198775185,0.15674725058648,10.1659788858705,0.193103754135366,0.0562523684404592,0.163149943658999,0.616256678815251,-0.48670224721641,8.63581826546868,-0.192937270478935,0.310765513741096,0.0443901207160309,1014.48511213017,25.7834129781024,1013.4217309757,24.669450045061
10.9489631652832,-1.68831630862294,-5.81051149157396,13.5532118355468,-3.38470229572524,7.33036233842899,14.4665365468996,0.290781349099432,0.370568721715662,9.6281486846418,0.0771664967684473,0.166665034169479,-0.299319342557013,1.29590025439789,0.581808123403723,10.5769501026217,0.0389736216085524,0.0988142611298363,-0.538571681540146,1013.2972391653,26.1821477973297,1014.10751407508,25.5187829539141
11.0537767410278,-0.580834293954599,-4.17843438237728,11.681892693737,-1.15620429396118,1.26770646932311,7.31502568363079,-0.198481708790447,0.542451400351109,8.77377032659584,-0.0472826461014139,0.0645422941412594,-0.346210077628457,0.605381938677966,-0.970896594800857,10.1241180565657,0.0540023013928278,-0.146119403082594,-0.222328268038268,1012.93143491879,24.3442784542928,1013.10690914342,24.8251559644049
11.1602125167847,-2.4821081555013,5.46081723096142,7.75788995504625,-4.69876343328046,9.13958474377874,10.5361851478405,0.493333496035006,-0.888145240375266,8.64863603055581,-0.241024053442189,-0.204108396099529,0.0431955315926791,-0.137400275502638,0.0128288642475654,9.88956638617256,-0.0188338271440852,0.035943658905575,0.147875593449612,1012.51549536406,24.3743442230709,1014.88493374497,25.4455057393841
11.2681589126587,1.50094377253472,2.83237522232287,10.1356470212433,-5.33532938022851,-3.27532430011075,19.8388786306588,-0.647149626612052,-0.60886292425575,10.0510628262368,-0.0438175357306241,-0.0332236651021158,-0.0595557679576895,0.21323489047943,0.902069580852758,9.67627596719378,-0.297875049980145,0.0807435578025419,-0.155206663016342,1013.78892325851,25.2362907009707,1013.48784362595,24.4541424501139
11.3773975372314,2.88548521058332,-2.42149152437235,5.6230146767919,2.8279298335942,-0.274209901794778,8.56598470976607,0.853936719670836,-0.0594593182416774,9.64717689685989,-0.353995909175944,0.200773622772105,-0.349860892901388,0.750893670864028,-0.654342759740833,10.4308399406247,0.276043647118614,-0.448123412563181,0.240049050145232,1013.48483544318,25.2555015221852,1014.35668861914,25.6126176665372
11.4839057922363,-5.44855450106975,3.31583108805655,7.77946319584477,2.32596582251428,1.89862014331756,8.32690401579692,-0.244973711306777,0.396657606407276,9.98276165272517,0.153340174905997,0.247676741969637,-0.136957484304686,-0.147805636544228,0.254911974168556,9.98929174903133,0.0032153837099907,-0.126016190681673,0.0388303568230836,1013.38069168659,24.9780116653658,1011.11134183843,24.5078623962168
11.5966453552246,-5.77195978653122,-8.02803818181286,9.59872187878272,-8.55088828388611,5.77121519732028,8.77290036919575,-0.280600414028701,0.243682950582089,9.55330859026812,-0.131657591413068,-0.0896781508569522,0.299373555208926,0.239923432642112,-0.0767631998604,10.6032587136787,0.0947284770483179,0.17204056838178,-0.269219416153712,1015.38226101004,26.09795684455,1013.07967432549,24.4855291275154
11.7099599838257,4.20205618487005,-3.09830643732593,11.3488249734943,-1.47969152825693,2.72125889002616,5.97810608297121,0.0885617892186768,0.485365691244333,10.1304343994944,0.235455036505819,0.081226600693424,-0.244619898621444,0.0614355070467711,0.120266332381264,9.35798513973667,-0.184282155097452,-0.237408224136885,-0.383442565468114,1014.46035052775,24.4380780641132,1014.35401798132,25.0461931702367
11.8197116851807,-4.66231152957458,3.05337449800645,13.8531173754643,7.43707102143516,4.70099463245198,3.17843351934036,0.0880931241115601,0.406311228220274,10.5775186468565,-0.0074823171408081,-0.0151839139754408,0.433150652415379,-0.519532417055487,0.858246799710027,9.63852902886198,0.268580868753765,-0.0936265862331587,-0.0192207899571188,1013.4636322897,25.3912690733058,1013.41294073207,24.7858913686681
11.9301080703735,-5.24294644536527,5.56932664768884,9.58348565344459,-0.381714741359964,-1.33660753145677,11.0147936607704,-0.617839975901729,-0.366498372230201,10.2063455616319,0.262185122731536,0.304800721856345,0.1011699417286,0.0682151828095892,-0.447381957348386,8.66302769013644,-0.328657989035878,0.100345365338156,0.0531477159254521,1013.74494714887,24.8203981695963,1012.84961458701,25.5163478148692
12.0444383621216,-1.45982385982217,13.2054763749696,12.9625494214624,-0.656755245712811,-3.36849281698641,6.52788793552543,0.825152332904854,0.73549310962648,9.51483524841853,0.15868786655227,-0.457411251598997,-0.290720425640063,0.427325605322991,0.0138196996712197,9.78689157107811,-0.203787245095042,0.064319385242841,0.237592409218158,1012.25229323909,25.2491777951545,1014.48310642273,25.2095944637277
12.1546115875244,-0.594788435446889,10.1634232184358,12.9687156970793,5.8696251942308,0.443210513234713,8.36975701161144,-0.038323152409013,-0.0710888372487684,9.27687947791268,-0.119258952257335,-0.12577099647688,-0.133304231962263,0.635235568058235,0.671902948436399,9.88438530083645,-0.38441927988553,-0.209317364852924,-0.238315143403143,1015.71672723709,24.9619146859057,1013.08035842937,24.8184818328201
12.2652025222778,1.19616456683391,-1.83004333456861,4.80124618138233,0.669065190820118,1.87431625705882,-1.78177068572115,1.05483291036921,-1.21887513939476,9.62638219467184,0.268256561048304,-0.358881578616851,0.0771680279336429,-0.543935765555211,-0.176331280117426,10.4689408244569,0.144827429617462,-0.0442473851923633,-0.0848729722945071,1012.98067425359,25.207824896684,1014.08011772062,25.7387224960145
12.3747177124023,-0.117576412657656,-6.315131967507,7.22830045785952,-7.77420317205008,3.43390718152939,5.34632801051407,-0.539778447364555,-0.563066115795435,9.18076669708348,0.0281046667484591,-0.0491967250545853,0.284607260310316,-0.0054831994704421,1.59824419809218,10.6236286154371,-0.109737027929036,0.05820117342162,0.237306578804908,1014.16195900737,23.8149384176899,1013.32306802387,24.6685935945355
12.4865989685059,1.56161507973146,-3.67742921159724,8.58483827587807,8.0123898324031,1.57688566685012,5.20520922175347,-0.754579147825431,-0.506593042917546,9.01684553903235,-0.122714431361793,-0.0626652716009599,0.181012816699147,0.382143848881541,0.831429422394418,10.0130097668184,-0.199769154914669,0.33714909913333,0.361707745064186,1013.36720381762,25.9091595541677,1011.25536863509,25.018615720435
12.5988502502441,-5.10019064569181,10.1991928667044,7.71793705202372,4.20906145112992,1.45642462896354,9.75585286983223,0.0858146027438134,0.404793846614502,10.2472444343847,0.0302566257449886,-0.0002397079395983,-0.18498377129287,-0.467770649630146,0.591432537751494,10.3863648596181,0.195227162830601,0.415493306057113,0.12681751858572,1013.36462378528,24.8747851363697,1013.24445615088,24.451415453054
12.7134580612183,2.11220526027122,3.42093590247326,0.248642668550556,-9.58445487777759,6.99937280276352,8.13302804150943,-0.321885394466141,-0.45328698937582,9.78569003685218,0.190707538941051,0.0447045530654479,-0.239763465433169,-0.502554389761909,-0.111520092546594,9.39632867399074,0.0219060814529529,-0.0103380045642602,-0.0779028726755318,1012.1150238178,25.7440394061148,1013.34043048187,24.7488951520097
12.8295392990112,-5.41958664281694,0.528108001269493,9.05151654249047,5.10932006134638,2.80887762260717,9.62013908841224,-0.0579290364564958,0.186889273230338,10.0192760654356,-0.0241915587887918,0.336675155736113,-0.0920913340015318,0.122992947730094,0.225003658746894,9.23333625610044,-0.0871578533794559,0.302200691868481,-0.474180245952833,1011.5102802851,24.7208127936392,1015.24384071262,25.8458048856667
12.9461555480957,-2.02458120359172,1.95260982551786,10.3997310996618,-0.275710521961093,-8.04223803019476,7.35536074545309,-0.788869938869085,0.0866777582885087,9.69803950466971,0.389539304395621,0.0864661569344601,-0.0545492368432141,-0.108304409937417,-0.539723752154229,9.24349108643325,-0.48830399444462,0.135533762688304,-0.240541351816676,1012.63466810961,25.6110127701994,1012.25136250877,24.5261872496564
13.060525894165,-11.5283972542705,2.12632911492786,9.84274103574369,-4.87015136696573,1.78664027037906,8.75182078837099,0.980634613594842,0.133843530831214,10.1992636971913,0.0707059266260609,0.302987959989602,-0.192042179991441,-0.418148306901504,-0.315054215184176,8.80930487942245,-0.009085855676975,-0.459237684231694,0.0293631638035976,1013.7613849065,25.566511473983,1013.27162733987,24.9689012995826
13.1760959625244,0.903492327650355,5.19049776106543,20.8330068087253,0.0278659934907524,1.35892316773205,9.74799089465623,-0.163737155015968,0.461271158367216,10.494912293126,-0.160359511744007,-0.235025841935798,0.164613218213544,-0.597935754382318,-0.53489823745138,9.65900064178531,-0.259965610682149,-0.398848600973877,0.15666880629253,1012.48670379165,25.1578442020375,1010.86365154602,25.5360462777606
13.2941160202026,5.40126034292026,2.77217271581272,8.84417058995242,5.72692057614561,-4.94101011626767,2.41363437477362,0.546434359837398,-0.556911899391789,11.054277161949,0.274327597553724,-0.225117127221195,-0.308629577096498,0.338178378752921,0.814392851541375,10.030252161206,-0.122117516029214,-0.0712625945120629,-0.058634536624755,1012.68336565485,24.5880673298565,1011.87542075405,25.7498683622931
13.4110975265503,6.54929329314602,2.07121921494424,6.11998586123262,-0.257574205472299,9.09978460320274,10.2019971904058,-0.0973347341518329,0.149967857561424,10.0023849576047,0.209522841111368,0.0872534544936231,-0.0494029686242327,0.39837509328067,0.303006502348486,10.1239436472862,-0.0047178213079827,-0.0059710331575133,-0.159233113472584,1012.56870877553,25.3544856236037,1014.00111986611,24.3128100697718
13.5303745269775,4.07846232181638,-0.126978338639701,9.02198973552394,0.888644871928372,0.646860487439084,18.7476361299768,-0.0462531760270962,-0.366079074810299,9.43974927195372,0.0752093012808979,0.237475342434028,-0.067811476361755,0.225666173295689,0.674768226837005,9.77618146691564,0.0015519990837384,0.0369297436317712,0.300734839907369,1013.36911734379,25.4044179134466,1012.69352379727,25.2876045850553
13.6486530303955,1.57177286950545,-5.73511796351622,11.5038821826207,0.0304315140569608,-0.33375428479357,15.8894597414939,-0.308423294762217,0.421058129676756,9.69871369320268,-0.110596743759467,-0.164388430114455,-0.161067421164604,0.169843229234763,-0.270346381031421,9.50199053733548,0.10969879107108,-0.142247181815403,0.380130090400477,1013.79959571049,24.9811534729913,1013.05679181045,25.2048466449787
13.7701168060303,1.38616382481562,-5.00059175721362,4.39909701425235,-4.19687103951731,6.49883980713074,13.5362742484397,0.829597408030019,0.350355307149085,10.5807208720591,0.016749646886209,-0.308837555404869,-0.471572691773889,-0.725087393085801,-0.603975529267758,9.71124379150656,-0.0268417991864867,0.159165445593747,0.129640868615915,1013.99061253351,24.646278282908,1013.1466444889,25.2228147065762
13.892315864563,-0.840518078935206,-4.51872278723055,10.0209005802451,-4.92262049698018,-2.2111933102768,13.6059026371689,1.06289989023377,0.76502339803228,9.54778560962571,-0.125885266153981,0.0170644851621184,-0.16890210910255,0.36807156249331,-0.0163110913727047,9.89000317509287,0.0590668634041604,-0.143569267809806,-0.129476230501042,1012.4659781058,24.3377550737616,1014.1164738242,24.8790036650374
14.0205049514771,-10.9438182882732,-4.19585062679683,5.19211959019367,8.06484544854351,-0.289401835335286,8.10005961113342,-0.464719355887093,-0.3957886569274,10.0118089132726,-0.0979133398514494,0.0004413739122327,-0.0008436741308817,0.266324924384276,0.235401016345023,10.2049732500158,-0.196733212189862,-0.0308567642482895,0.003548769338501,1012.59231108701,25.2544938877978,1013.25631976084,25.0298673809546
14.1444416046143,0.0304985684835687,5.04311328398334,6.77614125221916,-6.6164395266512,-1.00655347877789,8.17376800080501,-0.335428037702792,0.55661228238091,9.44130671870684,-0.0599566392703123,-0.0230423319503597,0.37173437093819,0.287341430292431,-0.382789863858067,8.65048268424261,-0.0212489371191607,0.013733350581359,0.206750915686964,1011.95409996492,24.2328044230197,1013.70808625394,25.0561156873425
14.2677011489868,-0.612870823474257,-3.20151924068326,6.9248662739741,2.07431555428486,-3.70699690959069,10.4137606885044,-0.0362880660840406,-0.0357893725228547,9.67942874071182,-0.0205924528590968,0.149981397739434,-0.24456287131526,0.599377259282889,0.171426861143686,9.49035184165631,-0.123178865951323,0.0923169494625009,0.348217894435777,1013.5030392841,25.3096687955775,1012.81024660169,24.8829444797368
14.3872852325439,9.00790653169822,-3.26488148571112,12.5048714869477,-3.47240912717725,5.35597543632861,16.4744146200366,-0.37002589844513,0.0111278628397537,10.1052862234387,-0.070787210783541,-0.10762424818472,-0.412934254822568,0.356507672718809,0.788248799642817,10.082215790062,0.158671432091137,-0.0961049486160267,-0.152806445867661,1012.73609545984,24.5661197763441,1012.18758840664,24.9579083773016
14.5112771987915,-5.95071080193786,1.93122552998275,9.94817036774504,-4.96456189280443,3.41214260007235,8.36284393167913,0.102024022680506,-0.694605324232299,9.91808812597833,0.319568326368977,0.0683153328302687,0.30438262409533,0.192775443532645,0.0720256649339046,10.1613582147398,0.0952389742438853,0.0382693462546536,0.0076057184961995,1014.40426749248,25.0748763983826,1015.68501131871,25.5272446019978
14.6354942321777,-1.18595047204239,0.596526715797847,11.2961390418529,-0.851465086298443,4.53395671497201,16.2546627786326,-0.388553705834411,0.302159418295828,9.99381494498412,0.277675885879488,0.210329520667904,0.11872151782162,-0.114496901317695,-0.35164621026902,10.0892383615885,-0.198805618820923,-0.126893505592093,0.22240117614978,1012.78552441484,25.5909286337582,1012.64126963841,24.3462061428619
14.7621850967407,3.36798357419186,7.02666231643335,7.50747909500575,4.47291271481346,-5.46313186205909,-1.21324146704707,-1.01449142485178,0.207001149638051,9.44381739657493,-0.0725140344658816,0.151697262030879,0.305063312417453,0.0216383713483983,-0.485389871889902,9.14019041821513,0.03413671614093,0.101762765137856,0.0180399785498637,1012.78351146151,24.4457781390666,1014.12469827052,24.5075556034735
14.8880214691162,1.00333378794299,1.35920269889879,8.69210449848664,1.53421014192738,5.40882338662071,10.5129209795587,-0.0302833187354079,0.251188580078987,10.0997763311151,0.0786560348590143,0.23207752309761,0.0876488858414103,0.213217668355253,0.267442860425824,10.0196925924687,-0.0255529596130731,-0.65938145973882,-0.0888808637161717,1014.38165057655,24.3988024793953,1012.20110163199,24.9490751878618
15.0144662857056,-4.71391065860521,4.98093717654093,13.8908844737455,-6.11582216848514,4.55133482660639,12.3411290674989,0.325043187051305,-0.760647738488204,10.0674427774002,-0.0586149763631558,-0.0004093567861384,-0.170896496337638,-0.229826258075356,-0.43546027267091,9.46516164151338,-0.13621804656972,-0.0056245512215673,-0.221787820601931,1012.46274505332,25.6041192834868,1013.56648477956,24.5123290169978
15.1394805908203,-3.48298882486112,-4.91857620842236,-2.4312891769832,-0.36949002926317,2.93416395805409,4.23444076488343,-0.241998544258761,0.427441573398567,9.4546926270506,0.0567712918236084,-0.144596014111503,-0.082012890931593,-0.416384024298689,0.124639737823519,9.89301969090582,-0.265924809998272,0.0849726137221693,-0.0753993278868237,1012.56185510536,25.3991390380553,1014.31146542229,25.0178953904872
15.2643985748291,-7.71966602631801,-1.13351046851574,8.52073465039277,-5.87144654493151,4.46711452584941,10.3993016384404,-0.594107785635218,0.0928665630004735,8.7494053381761,-0.0237242897905437,0.0598957313549331,-0.221366731476217,0.538417989059109,0.220498313641808,10.1711619948465,-0.0890211614704596,0.113065539546673,-0.353458373336391,1014.29289310647,25.2057987529851,1014.41410381059,25.3054165668256
15.391848564148,5.55989081599968,-0.553490129120323,10.7610064966114,2.08697225090105,-8.69581055117855,15.5232216086182,-0.752387069343833,-0.224937381688662,8.89408607534469,-0.107265177598245,0.0291829467883069,0.460349837746315,-0.644099780890331,-0.744338502847143,9.42641807998654,0.223616326364795,-0.18704569956632,-0.227573362295536,1013.22863745656,24.7096713064168,1012.13836345407,23.7726335066874
15.5250978469849,1.66297515995725,0.035523801659983,19.504108554738,1.08948937524769,-10.0005418728328,8.24209097381217,0.807407869179905,-0.439592783503685,9.39270864676832,0.195279634934734,-0.0441153224722448,-0.321773803087623,-0.443142005662677,0.0201048450287324,9.51124283862172,0.0354270398124835,0.0980208623605189,-0.2634539110191,1013.03904878802,25.5683427801262,1014.15236312781,24.1072509875669
15.6573305130005,0.824782195159948,-2.83115669762364,15.5981351857555,6.02488141351474,8.2555824335129,6.05238834174657,-0.341927533161243,0.428774765191579,9.97183854198809,-0.0731346501523422,0.469440547555214,0.0527487203650601,-0.439898270160239,-0.884223299318353,9.33965810953688,-0.0482113453391477,0.150334186169979,-0.0486101902053626,1013.27291609668,25.10872775343,1014.87478977523,24.6337734200963
15.7883930206299,1.83633508437887,-0.445488309087281,21.1901556862638,-6.70222544159707,-7.32861741288029,5.90249489275894,0.546374875107678,0.0511610105864923,9.23039966809171,0.0848187988839941,-0.111933351780031,0.162441088172852,-0.581794165794623,-0.189397427675334,9.94257056721223,-0.362028228494447,-0.230910866806183,0.620649191652259,1014.20465123563,25.1870688827841,1012.33590527276,24.7201663543687
15.918459892273,-3.02900170476472,0.0294670370030633,12.9738180001192,-1.10248127247696,0.0122350826069568,1.03894773588069,-0.511482546939861,0.369825487254935,10.4664979064412,0.202759070719461,0.137794510035923,-0.1327265779999,-0.30219812210336,-0.359065694162226,10.3497823488214,-0.460333849429185,-0.257630110114251,-0.355726070097658,1013.66795461002,24.6818181539061,1012.88768504483,25.4983905123307
16.0466117858887,-1.30333072399783,-5.85297767109624,10.082342054808,-7.54445490378916,5.93985331337645,7.53195569118593,0.117904624530006,-0.458512706508542,9.78488778163683,-0.0101782542933093,0.0301715668073829,-0.0718421493295963,0.760595828098744,-0.103434199609878,9.18412954052762,-0.0535695641795141,0.103578325691416,0.312483103490267,1012.00718265817,24.8594687260337,1010.58572458342,24.9176970474727
16.1778221130371,1.7228261223576,0.804269248845566,4.97049075636336,-6.61998115226694,10.9699365323734,14.9870081535582,0.305663972118409,-0.523075560948056,9.97709983839774,0.0004563855308768,0.0619677908803226,0.0962940770135175,-0.525408138085656,1.04717003061386,10.6417379408821,0.251549744317636,-0.0549680109335727,0.105189593876085,1013.51907318577,25.9810453021616,1014.05780647958,24.8293389186718
16.3127517700195,4.32519800128712,0.502392340031168,12.9619773688893,-7.623558160911,5.11638606533662,9.83737240669631,0.077718199645571,-0.15972213567415,10.6071258458418,0.114207725376842,0.157418594271069,-0.394575576438941,-1.01663774284236,0.290641902765282,9.87260728319615,0.0752190211604617,0.146407721006107,0.330817005671866,1012.15330968003,25.7268080972135,1014.61088571596,24.4172303513931
16.443790435791,1.545801299176,-0.82759433677725,2.76092044788883,5.75438058420809,2.42957147046885,8.24674117299511,0.595885430681088,-0.286274877026578,10.4572202445825,0.0833291895737216,0.0339912029105207,-0.0385025231151167,0.115271248733492,0.110491391739829,9.75828607126957,-0.0779108588900811,0.22445986894563,-0.0152595023625959,1013.39995966858,25.3951016562335,1013.3067047104,24.2279895722879
16.5768127441406,0.671840454850935,2.15653994395903,8.95889669373558,-2.20990074450297,-9.84747661391132,8.16120112944923,0.349722460229902,0.239474282051683,10.1141789075108,-0.0613382397304312,0.0601909169877233,-0.220102465265076,0.232100993105838,-0.184475869025825,10.2552954232972,0.226121721510822,-0.0482038675821016,0.115646695471198,1012.72138103288,25.3255574233482,1015.3618961733,25.2582789640333
16.7090854644775,-1.60138974789933,8.4293735003664,14.6504162137049,5.00700015433306,-3.53418457927022,10.3279649855086,-0.352803949766092,-0.199355913118534,10.1837484096436,0.0863692226707696,0.209749786159763,0.115347835023856,0.23781769305341,0.0081809057123249,10.1459702074669,-0.0534349466061027,0.218435258609953,0.0860975808636475,1010.04390920373,25.2929307161288,1014.85157092998,25.7330624510364
16.8425426483154,2.49620155218747,1.11908670046455,4.48767777978744,-7.22976732048536,16.3213499465081,9.46758594686404,0.133001561288938,0.890365658954482,10.1673122984064,0.411332791756293,-0.0557910554671257,-0.149647380388565,-0.508073029034189,0.536348379177138,9.10333973018782,0.234864718522709,-0.0779093434023709,0.405698239305365,1014.08788007334,24.3612582901665,1013.72131971472,25.6722190063131
16.9786205291748,-3.04128921048794,8.8962240656841,7.61470273588068,-0.220001178226231,4.21545569408798,4.56015992066433,0.276619434373698,-0.11639272348504,9.32478330554619,0.289208540432861,0.194603659770713,0.209022940316874,0.306123241189093,-0.909169371704444,9.5438093967814,0.129193205387919,-0.457346105559221,-0.430187208376128,1013.74809797529,25.2509379135085,1012.30240094338,25.378082279292
17.1126327514648,-4.5917408570684,-6.53604996550922,10.8654988519272,-1.05655020704253,4.98651634257427,14.7025059735768,0.206381318686791,0.026405199582282,9.94044702312263,-0.343275953743421,-0.290873044695218,0.200437624325435,0.144292396916383,-0.548063860116143,9.61865052421206,0.0111089393639013,0.045488776821599,-0.0507564510647195,1014.16392984149,24.9756023956322,1013.95012042007,24.6658504747992
17.2483444213867,1.45777822893136,-12.3104229902401,10.7540890199363,-0.533203161081089,-4.42805868230847,11.4398981122297,-0.109708016712755,0.689213085530675,10.4569633445621,0.223403140820858,-0.11976486345725,-0.0478596602960917,0.657801798534993,-0.676963986986159,10.3564795016325,-0.0394061600774408,0.177333535878222,-0.401912660255803,1013.22784383361,24.9150808955082,1013.45986762484,25.0133976524802
17.384765625,-5.38991461509737,3.92852926696639,17.0514361866459,-1.76751540713457,-3.97377611586903,8.74982065155872,-0.529794697082366,0.279663636915459,10.0021819128942,0.0638005058115691,-0.0913293798783835,0.0784798602392123,0.294544499218451,-0.341470252783151,10.5143179215907,0.170994326640467,0.0988485329366183,-0.259538603769331,1014.16448036424,25.3105684222205,1011.2516629712,25.1222689028201
17.5246620178223,2.87142405728851,3.61924793412342,13.2541836519269,-9.84895814763922,-0.467352128562292,8.48006079500631,1.25461087994627,0.730381449531285,10.2342987171693,-0.133365284755409,0.173000903340433,-0.101135079196605,0.40955322219964,-0.292528386619349,9.33061736421926,-0.276344154269524,-0.0477917288405246,-0.0244006985529232,1013.96558424185,25.1960856811743,1011.84519194885,26.0346068004439
17.6661968231201,1.8578988457809,-2.39707963983211,6.58507842426417,1.02472230794115,-3.94956838613279,17.8575233569637,-1.27629169921708,-0.21828255019141,9.77204669302359,0.136644817786818,0.196425930683205,0.187337075984148,0.110974875792442,-1.06105281258366,9.38825943449733,-0.315028476314057,-0.337821091368071,-0.213085884139414,1012.00321768789,24.7264789692211,1015.98657476486,24.5754186254524
17.8055400848389,-0.184910720215394,1.22680848523505,10.8640884770669,-0.690657725389963,-5.61333283399185,8.6794925593572,-0.28948401618107,-0.190420036104391,9.53454813382029,0.31998419753081,-0.306216993966664,0.0695933191629958,0.0129611092837373,0.493456693725977,9.80167862944246,-0.179852185482881,-0.178201002222995,-0.183206332834319,1014.53598262671,25.4933695588206,1012.52468804871,24.3544269542451
17.9441871643066,2.11173751199041,-1.96269787499706,10.5345035500067,9.51478304589163,2.60195862374408,7.1884577140301,-0.168072112882325,0.101735478928159,9.82825533783636,0.185307143786963,-0.0954328539307174,-0.275977861153818,-0.175279459391222,-0.95854957474277,10.1160922832867,-0.25029399203877,0.0302865681283894,-0.0395639244282266,1015.10241791116,25.6856722170508,1013.71540360761,25.0175623334665
18.0828590393066,-2.0923177391412,5.32614647741046,7.20091353493905,0.369779425381147,-0.79481638167536,12.6129966450368,0.588137188488699,0.0300697874130432,10.0650630476017,-0.0364905706492476,0.0083008403433816,-0.196402832523121,0.0261959977740467,0.231964607257033,9.10450100888012,-0.0250509271042955,0.200524754865827,0.0022363955053898,1012.77942478327,24.2837450666864,1013.8501748375,24.5613295977537
18.2244548797607,-3.79091766876975,-0.228298877088471,8.62593606613833,-2.52273566740972,-3.71972348258871,7.90322802812041,-0.0480724429124485,0.0643327241692279,10.5337842301694,0.0342119698831022,-0.0379194593893647,0.179591137348658,0.141095680157965,-0.401916346305694,10.3430398194542,-0.0723046996136555,0.0889976687007274,-0.165450588167544,1013.92635181622,25.0612195966216,1014.68122691767,25.0482885703315
18.365650177002,2.4109817806083,-0.139898573823857,14.9657033922494,-4.58448532105838,1.28170699899023,7.84310649077054,-0.0310646200792097,-0.354927535476666,10.7128897439597,-0.0540562156243418,0.0164327516380452,0.35373829488242,0.250703397021741,-0.744297592876366,9.64779769180651,0.281938665978369,-0.0469236394852481,0.0726459413288975,1014.49334540591,24.6881086928271,1013.50001763651,24.5728257067175
18.509557723999,-4.64429704942528,3.26489189463119,11.300336344954,-3.38260598475997,-1.2037716439557,3.51829686592071,1.2022938831367,0.271134512525081,9.6548411101125,-0.0409573042008274,0.0272899894267232,0.46360388749045,0.766293678815554,-0.114259331030416,10.0982888009896,-0.240120249563385,-0.320946348088776,0.12420783360062,1013.28891355453,23.8200422943975,1012.73278977513,23.7955760634961
18.6513862609863,-1.9898055968665,5.71892415822729,9.89632457222273,1.6944408293807,3.11172984819437,2.24608336675422,0.114791005474813,0.560028500682121,9.99051110929507,0.241847852011237,-0.146292803585628,0.0162049922268638,-0.10691155624742,0.0931423392000684,9.14691554236327,-0.283751125235706,0.565218687362035,-0.184571720488894,1012.65491701886,24.8878934503142,1013.851811408,25.2388378430199
18.7942142486572,-4.09455605874695,-3.37227311001612,8.73242960066899,1.96931717225196,4.16660860878486,5.67609379540185,-0.378395429289589,-0.113263239432197,9.66263976736353,-0.16894571240959,-0.124464782126,0.17558140110838,-0.0294129602397145,0.26139065298496,9.68530964727597,0.063396540793463,-0.0593090097746911,0.0803595278920926,1014.34972029197,24.6306487393665,1013.36291993387,24.9847288904925
18.940408706665,2.81646104410948,-1.70769204621789,8.08330600260536,-2.57792538107184,-5.52775312641514,7.8994743886336,-0.259922999033944,-0.304493264067074,10.3149260808654,0.0686114725996555,0.183318322493888,0.254427535623997,-1.23938998386752,0.0806176768650594,9.77109410347464,0.0210312171859025,-0.0937465748749287,-0.0125941025468557,1012.13265285311,25.1411300331598,1013.5533918904,24.5037357809798
19.0847473144531,-2.75595311634175,0.905104658147714,15.0199445144598,-1.42561165849609,-2.61598364432698,3.84438851208114,-0.407218202327184,0.618213729065992,9.98743557494756,-0.006555243563159,0.321591054508157,-0.0978244534360004,-0.440037355193792,-0.0957275284851252,9.60841676249967,0.218558885973243,0.271775392823532,0.125853082141924,1013.74955763418,25.2449115576393,1013.17391534453,24.6625402851815
19.2309398651123,-4.64634610545459,4.71238910638343,16.7714606290336,2.17015594926512,1.62867156118964,13.1151190557683,0.691223335759831,-0.549396503229892,8.79782711155372,-0.0631763184325161,-0.0021860872038518,-0.0768195057837954,0.525766041287178,0.751472711765732,10.1916982071288,-0.224503206292636,-0.116164314546043,0.0140566660737942,1012.83934234071,24.4000431299978,1012.25655475885,24.1777108000697
19.3770713806152,-3.83512957272383,-7.25890446052016,14.1734247952409,-2.97007369727357,-5.04966556598331,16.821076497165,0.21037724948173,0.407276438829344,10.4966765916929,0.284438350803817,0.156228141206629,-0.131081740933086,0.0615472681464105,0.39684075499151,9.66726487183262,-0.318493409409356,0.184806219477461,-0.157278805193188,1013.40967949753,25.9155511178026,1013.41043468455,24.9308574380255
19.5268707275391,7.38283211229304,-1.84567534102034,7.83083299239166,4.79401892735466,-5.46491249518304,12.6920799459638,-0.298613768641441,0.153081947565498,9.1459189313261,-0.0545360375031077,-0.187820647066716,-0.132325395185958,0.800046701631609,0.146489988681624,9.86565937020832,-0.235094720895473,0.15301830745088,0.180125800461947,1012.59107852488,24.119900776671,1013.6977760136,25.2625895825933
19.6746654510498,3.98505765875781,2.7788925058563,5.76754823298091,0.149786048017297,-0.310212911240184,14.539990446773,-0.0635590204635018,0.667529987866148,9.92175399811156,-0.307302999757262,0.117286196624058,0.0792249065647629,-0.24243125284058,-0.683744582659713,9.75654138317821,0.0191639423775036,0.228642651961903,-0.105433888823283,1013.71782766207,24.9595880947513,1012.33171466841,25.4487705623132
19.8218040466309,4.64141090571578,1.91309847211618,7.03082610441254,-1.72438897606174,-6.65862511101468,9.9078948599652,-0.674633726457636,0.10504559664817,10.9241687307822,-0.166031109312286,0.735423447110845,-0.163034559463864,0.642760201314484,-0.596531683444257,9.51186277184928,0.193028821255195,-0.0372865823551759,-0.199737601654021,1013.86209529383,24.2424722445415,1015.05227900763,25.1543350770812
19.9696407318115,-8.9007966790929,5.4681612229919,12.059725824667,2.50499535921891,0.332068384110611,8.17163379892353,-0.563248206680841,-0.724491634545109,9.82948003447685,0.306782156607379,-0.0023882438848682,0.0990250691872092,0.163931571531837,-0.508014559372149,10.2356718024079,0.141312954192643,-0.121768780803578,0.279277462516283,1014.14201217396,25.1974150553987,1015.29641602063,25.0683277719937
20.1191692352295,-5.76216492988389,-8.18195230760273,11.8154477850351,0.69481492720124,-7.19251971934572,3.52463723084067,-1.00678871236168,1.10232902453759,8.62238931485576,-0.36514692592242,-0.0541165817426313,-0.0852550100830683,0.665236101485641,0.0626980132862695,10.8386158945558,-0.259669837176294,-0.182120829172318,0.497097358899592,1012.6873194494,25.118357032617,1013.89321812371,24.3347555125588
20.2715663909912,2.0881699900173,-0.32272384993767,2.43476782498059,-5.00102590301303,-4.15896723806432,12.7604201025872,-0.387622951589502,-0.896156147882826,9.09631346314496,-0.173413217133493,-0.0784744056166734,-0.194837872307985,-0.510173996288584,0.748218993664727,8.75208182904188,0.251941916005698,-0.014530114721815,-0.21956236518962,1011.24782411063,24.683874051647,1012.48483093984,26.078988064763
20.423828125,8.67356770274118,-1.30529335015773,6.85123210193853,-2.95384211531662,-1.85896566147595,7.58602850465472,0.0141988349332834,0.33771449343024,9.61767986936019,0.215255145478287,0.0770728002849273,-0.205072798958028,-0.341850627517749,0.655420390374389,9.93512513682089,-0.0176735976602851,-0.239811230118048,-0.0935131739610782,1013.85364918967,24.8509861499846,1012.31550587038,24.7048858254358
20.5763206481934,-1.20251593639005,12.6787561965361,8.73557510269707,1.68029721850413,0.407970093146139,12.9087098513916,0.523264328876885,-0.422370549951121,10.1773247669569,0.216197463695241,-0.0725058096936881,0.119091348170775,-0.186563272687205,-0.209045247802805,9.79083706092349,-0.278130010446393,-0.0022574432319784,0.357847003367663,1013.80079106869,24.8507204093459,1011.89143823702,25.7337879423266
20.7297420501709,-1.5929567263012,-3.763612869488,8.96178520182113,3.90251177745731,-8.12767821378946,5.52064090016062,0.0802515989526885,0.80434874840306,9.59705394578188,0.115289802624104,0.387943139365556,-0.12387389863612,1.09042823201611,-0.278849112727296,9.93069438340009,0.189269942791248,-0.226250187347679,0.0312008818718891,1012.67177497043,24.8512954835986,1013.56442066196,24.6771835517689
20.8844127655029,7.40489118803028,4.16637389718157,12.1518105151348,3.61824631949573,3.00114392876529,21.2362648270517,-0.569285120952722,0.0167130349110126,10.291026419421,-0.04620904202075,-0.270216382314094,0.0085789926755701,0.121444463860439,0.28545969761317,9.23460967095385,0.0606523785611841,0.0059026948427193,0.114695890817193,1013.99733745222,25.4969298667604,1015.14055563433,25.0011968052391
21.0405864715576,1.36103642783841,-5.99277865746951,13.2284087278147,0.458463825554905,0.909798914805243,10.4120408700706,0.321001015686757,0.130147294831905,9.88566890425014,0.15755928852638,0.171935369703026,-0.0370684312859969,-0.250567610687494,-0.187310578204924,10.0592416371723,0.0538625059334551,0.0499864789827013,-0.0098705656757352,1012.68634742981,24.9111350107535,1013.40048136536,24.0814114634279
21.1963558197021,0.309568811922556,-5.11194690907579,10.1507715250866,-4.92374199859678,3.84841717688966,12.0166711300378,-0.703160168457487,-0.874104690923588,10.8110244273666,0.150719260936661,0.0406052150158139,-0.156424769925978,-0.438717795387627,0.368039592754535,10.3641369866121,-0.159426265798374,0.284043411389197,-0.178970611713962,1013.99774520209,25.0830781912205,1011.6269175062,25.0070603106385
21.3526840209961,5.75511194750755,0.0954661658631436,6.889509910746,-4.14173856119275,2.32419149969538,9.32377513003767,-0.313371440196641,0.0908998896410912,9.54537664225829,-0.243169940006812,0.11313803823437,-0.340075507851363,-0.368118000511728,0.188049630583656,10.1450193059378,-0.385103217331193,0.419621521432185,0.329473759447248,1011.78537045529,24.5472962131203,1014.02389540406,24.772628939633
21.5106582641602,3.79318296137007,10.9877598564786,24.4088079942667,2.85012020596013,-3.57512786714288,-1.91997797191583,0.65560767893986,0.0012163772499333,9.8118464089429,0.255364861278255,-0.0702782772036741,0.085311268475475,0.284497527850466,-0.0191562172410842,10.8601359477762,0.196647557612147,-0.272805797812241,-0.065005919050058,1013.59261677676,25.2126095672011,1011.3643566139,25.9374762092881
21.6703338623047,2.20469696985123,-2.51945305787375,11.2489184010865,4.72143859780126,-2.13557647839206,8.86434909454534,-0.407416307108139,0.846824658196131,9.8507790665459,-0.0295487110956069,0.176368740037474,-0.263755814048442,-0.733967778832118,-0.0183595885769062,9.88017298221955,0.46867167667783,-0.109786902836003,0.159400199857634,1013.00919318649,25.057406249558,1012.25840071871,25.5889370378533
21.8295974731445,-12.3917951565706,9.25400196691474,14.6967683407031,5.65762757038395,4.9146076835881,5.76536117972015,-0.0199137725625709,-0.547110015564667,9.59401986158138,-0.321385182080131,-0.377363159109691,0.127216881943093,-0.116622410946934,0.110857851896458,9.60405388083204,0.608313685565348,0.274816278249954,0.155321226917486,1012.97312074755,25.5177192919307,1013.9807811837,24.0804199706823
21.9906406402588,-5.62937678702506,2.29168937262438,0.883801638054544,2.54313009477208,5.03151330099176,12.7200200665601,-0.422391553479105,-0.281975809814511,10.5246697264262,0.295356448877742,-0.284630804241067,0.264809178522631,0.40137178561798,0.645110192520718,9.46160093105305,0.0045246979466304,-0.0927396104716553,-0.587432501884963,1011.93476567602,25.4827679433822,1013.78573966872,24.771124572936
22.1526165008545,4.67953098481687,-7.10740345274533,9.85628620147677,-0.569123124017305,-4.58006774298521,7.35195214666312,-0.363057852195241,0.748643057304944,9.71060212298414,-0.215216429964422,0.0440641245185358,0.125800710840502,-0.0284035382966312,0.0411238424543002,10.045320582145,-0.216527648469867,0.16691733925487,0.0777458164148045,1012.45565692224,26.0055283236378,1012.83486550472,24.0581406933626
22.3158588409424,-2.83121566578753,3.77884178750064,2.65329643990048,0.848774978196117,5.11731466250713,13.2057054702634,-0.148640967098574,0.302846027675782,9.56006034842424,-0.0854125912606339,-0.134010565266989,-0.162292550501272,-0.592076353898636,-0.308973312902245,9.62195962221549,0.159111631364752,-0.283389006509797,0.216515982724522,1012.88249534502,24.0201753313713,1013.38903620603,25.0693255054719
22.4789695739746,2.23442950254673,1.08984914875022,10.810254433114,-10.4023938457163,-8.0537301113395,13.8966735130179,-0.110607863454419,-0.111773033378927,9.44798563264513,0.0366050475392584,0.0904578619179664,-0.172964869166769,0.595917681338024,-0.520782382670932,10.2901926016544,0.27384630315534,0.147441736950972,0.0491599987612886,1014.44469406481,24.5587395986772,1012.82838311619,24.3161630614409
22.642406463623,2.53040132339147,-2.58109129883247,11.2243545371188,-2.79018138883215,1.0144220100917,12.0133639751423,-0.456298959482079,0.303854185424967,9.93639107760594,-0.293702235360632,0.0860284615338283,0.122688948706216,0.130256009063262,0.349032579691982,10.1439125120187,0.0424591482912693,0.126659962446244,-0.0746687442860485,1012.98139518819,24.618498001567,1013.7420061314,24.6698078758244
22.8085155487061,-1.51835012150508,-6.0071739579882,5.58507947659436,1.06247250449936,2.65630535329463,11.0884505176269,0.116054812306743,-0.852037348402174,9.34581798609732,-0.0185323860245094,0.0906221035753438,0.0038193218142018,-0.644309611602693,-0.648831108414072,10.3597344294321,0.0389213333713534,-0.12132266967919,-0.12544906456536,1013.83687617459,25.290547144702,1015.41852300841,24.8575784439471
22.9767799377441,-0.928404674445659,2.42171672382742,16.4948039248606,-4.57387550384992,-0.953230030373931,13.6003301211796,-0.911698632062314,0.480814385042068,9.62718546558057,0.0340939551744459,0.284236044800926,0.0360659180702267,-0.810044922422688,0.0257606948715616,10.1085572216328,0.131269739260964,-0.136279793185663,-0.09818954805833,1013.50510802348,25.8744434867206,1014.66613830023,25.1889777968682
23.1441020965576,2.67025973875437,1.0637273728248,5.10108183583055,-3.60366030447429,-4.47640356999645,9.28754655938205,0.465707100425254,-0.197131871747299,10.4141747094777,-0.153048024749143,0.0747471070885168,0.185056192125946,0.690054439258766,-0.571544268111258,9.52492596979488,-0.325534840205318,-0.105428190664111,0.417444785808834,1013.23971509977,25.774100268186,1012.6885235417,25.9201640431245
23.3115539550781,6.9293503991688,-6.40532773254707,11.4881384548382,-3.1126599264336,0.809247131694213,7.09167085366807,0.777618619488071,-0.482503007715849,10.456125278576,-0.106676049792652,-0.081830366902841,-0.175757430626896,0.291859559868915,0.103531609134938,10.0017104424364,0.12361355377577,0.125871192060583,-0.10247540162582,1012.79498451605,24.8953902956017,1010.83078054663,24.8678837425281
23.4827671051025,-0.312825007342289,-4.38962460726241,13.3991688703178,8.35282004143795,-4.31938290064674,1.9566905157498,-0.48342555334142,-0.467172752647471,10.5084696245923,0.481955919045371,-0.215864288707677,-0.0981652548851452,0.422071099446109,-0.749846787920155,9.4451097110303,0.227925516093895,0.130187708947796,0.292655580897194,1012.24124904631,24.605182122039,1013.57589081568,25.6934910441538
23.6529235839844,-5.71617848118126,-5.51955575679557,12.1042797757503,0.067435158416261,1.30466482849458,11.2894632477745,-0.544130112718653,-0.159956617900631,10.128466433744,-0.0464304251304041,0.0464317477344105,0.538937693047463,-0.256235424243821,0.614038177620727,10.1037773245205,0.154762345964011,0.242512360472942,-0.0964924665537835,1013.22580707081,25.2385263036001,1013.30495964305,25.7507216747029
23.8244190216064,-1.23116725426658,5.93149263016126,11.8581118689407,-3.40356939654683,3.27564511157637,9.28726701602626,0.185498579810263,-0.121975654661578,9.08232158461076,-0.0703860674129243,0.183354582791645,0.155726173318662,0.113801274770044,0.345768959740111,10.1195527424916,-0.0750265657205197,-0.203139714541799,-0.0367818158453397,1014.58226901345,25.3340273956388,1011.458097773,24.607705988043
23.9983444213867,-6.59093682844179,-8.6750255854374,4.44630579489171,1.12781792975564,-7.88442030989301,2.28810855317146,0.375745727830938,-0.201137962223765,10.2251218735497,-0.373083406784152,0.0954755799138005,0.0724926384870063,0.0230792248853536,0.0710930526343629,9.90004659561422,-0.125893005880966,0.169505480994134,0.30030012916825,1015.17399774033,24.3371365872321,1015.46138555201,24.9707758952813
24.1719799041748,-0.828219013227525,5.45159759320281,12.5850345048522,9.04339553458526,-4.76963706070889,13.7831478880096,0.595478379030745,0.60973270610859,9.77777183692249,-0.0957450562448001,0.0907028361094601,0.519813406175111,-0.0568209521924893,-1.07812984712794,10.728935591434,-0.0200947995330476,0.158604431221964,0.253066743870301,1011.88856546379,25.1035519164323,1013.51432291287,24.6605876031233
24.3463535308838,1.51166128740246,2.2454848986633,11.166391163461,-9.44109399807178,-3.4353529826372,15.5100951630229,-0.221784675049043,0.205553284020961,9.7340981784383,0.0558745128327192,-0.194471959584609,-0.0949281353614689,0.435219836477341,0.469406099904833,10.3786916489151,0.19502056874279,-0.359684508678178,0.0119367283859429,1014.41771039694,25.1041287711118,1012.77212263496,24.618995197227
24.5244655609131,-4.3986119266962,9.34451113285881,6.79984670111329,1.30710166941993,4.23766970541017,17.394751356014,0.155306891189462,-0.160935330231659,9.40228900851484,0.421759397920053,-0.117889826956034,-0.15729935837276,-1.17185778132767,-0.149136646388805,9.10894299935007,-0.0265494068877479,0.0132783290149652,-0.01545347905731,1013.27555160239,24.9979158683921,1014.39609579077,25.2072864891401
24.7028007507324,3.40658592231964,4.19993453647061,13.4774377598119,-0.671030720999478,0.582360001457721,15.1211530016012,-0.127069152147619,-0.0444090636776855,9.9754747973508,-0.178981141146748,-0.109743266740455,0.322322467803725,-0.175795390528786,-0.338781417689766,9.73996690698879,-0.331838929222036,-0.0922006036146944,-0.0658343314765561,1013.24645127902,25.9304011079145,1013.63664192845,25.4476259287176
24.8821258544922,2.28523517034864,-2.97204721805089,10.2996838536872,0.735879396593125,6.78322309993372,11.590134752043,-0.903314752818283,-0.28395015979787,9.55272783638498,-0.161431026499453,-0.257524683871914,0.34165121780964,0.0023746329610622,-0.456043438139725,9.56397691398046,-0.215445590426014,-0.0602258520085646,-0.0242957840853074,1013.35041736909,24.0798908899204,1014.85839273135,24.9717658158706
25.060941696167,2.22754316258347,-7.71744313072017,11.955512460668,-5.43422550899464,-5.73085452592363,-2.3082782406089,-0.323841211765599,-0.372676044251372,9.77034966595697,0.0357517533543705,0.41416640482907,0.0477822538508692,-0.100630631832476,-0.701546618774799,9.24039185863492,-0.137933645398457,0.209729674775679,-0.168532848205743,1013.97096568195,25.031959137556,1012.84602301332,24.8192104652323
25.2455863952637,7.0795637319487,-4.03801149244981,11.5352158375939,-1.30949596916611,-3.91438345449453,2.0750846758592,-0.395225901778684,-0.673858891005219,9.84614592356467,-0.158242611161554,-0.222204790215744,0.217332845572967,-0.142173499405095,-0.73302741192512,9.97204409420973,0.0026665364867207,0.238644947951171,-0.153298063164467,1014.59148445487,25.249827260736,1014.36060776598,24.5213018206157
25.429048538208,-12.9982586267109,1.12639462064808,9.64019606187152,2.88840880497439,-13.3867856027603,18.0601696376934,0.289352834682881,0.158082099859143,9.59171199879898,-0.0467256462402942,0.117419823172854,-0.285054786019566,0.102993614249528,0.302699245638606,9.81907586433731,-0.275126370017559,-0.239778348136299,0.0008279092325658,1014.05300976012,25.6239399580968,1012.85169989412,25.1078815371256
25.6163272857666,7.11102336683126,-5.03030462301535,2.49512425488662,-1.2757088026489,-3.16639809119134,13.1385432887056,0.036127210721537,0.632501032011422,10.2362503574049,0.196958827073734,0.117973821304374,-0.178654518170128,-0.753806820255457,0.0896530129830504,9.77516673245026,0.0655069207313716,-0.133847711252324,0.177668766665651,1012.90255801963,24.9035753523484,1014.53296326132,24.966817885509
25.8029670715332,4.85286960071458,4.27350597896528,14.1304131709339,7.4642909484329,-2.4827544165655,11.4363550810082,0.0091627954592157,0.556461130886578,9.7988306502175,0.093411792949159,0.192472671725747,-0.219819126933308,-0.277602875651159,0.299802833926607,10.0694484351213,-0.115964518509325,-0.304378965352984,0.43045498301728,1013.74600745358,24.8541920939048,1014.0647394909,25.3635271989799
25.9934978485107,7.5310937131246,-1.01074104193414,10.1827601751049,1.09027580275858,1.00568695723111,5.89396679978728,-1.06439122687684,0.0162147446893403,9.74290578783132,0.112470998357035,-0.004431246711993,0.264296498136676,0.0944972902772736,0.521368705393967,9.15402504667286,0.138061034040449,0.0079596954923496,0.167307812237547,1013.06432441744,25.1429394700083,1013.59505653946,24.7277774897658
26.1799736022949,-9.38680126537652,-4.68311601806014,10.5376337221529,0.48209010316171,5.70906562112408,2.91844282673304,0.206625946109958,-0.365007998908786,8.73025145640881,-0.272215570193358,-0.0560587643852165,-0.226593560007584,-0.31320723972955,0.488095603577844,9.85952490190468,0.178128820054195,0.157345621977526,-0.203564174747203,1014.26206516406,24.4283667366859,1011.88306666761,25.4329222015986
26.3732585906982,0.530889542922234,-11.0773624285066,6.86549501004192,1.34443405164225,0.799510147284356,9.1713006996879,0.325423795909459,-0.0460142302606787,10.2365204148568,-0.179100191024994,-0.046957091912858,0.118585865400015,-0.476233946592191,1.08446416096087,9.77224942941933,0.074837415452851,0.0837422261480392,0.212796494955196,1014.12861499105,24.6089057145356,1014.99682744687,25.3943330114028
26.5654373168945,9.04755249518752,6.57286491216208,18.5125993374735,-3.45234197015275,8.61666049179568,9.55067517341868,0.958359422883165,0.175704047042837,9.02589034438044,0.108770709690933,0.0708691245380497,0.0875800978639756,-0.312999629728822,-0.715597114627147,10.1698723708428,-0.130606348843977,0.144872304370045,-0.002106188160936,1013.59894979425,25.403702461583,1012.04726629804,25.0741387692935
26.7543773651123,0.224953328923086,-3.36781210836407,9.78749990273763,-3.30536982903151,-0.830655119834197,11.4251912999939,-0.255341986044871,-0.483625562708944,9.28256697844148,-0.125334477082427,0.208607337996914,-0.380632127961906,0.188564630221539,-0.571142752978951,9.4419222373795,0.302142622897943,0.0020234295191295,0.0712937259365744,1011.62493500904,24.838963061432,1013.25063287236,25.0087168870811
26.9514656066895,-4.23571506763769,-3.93033285859883,11.6125725278323,-0.903784009389438,10.586917764509,9.18257393746008,-1.10618295679741,0.619445215473333,10.4092622530034,0.252457566905805,-0.0395921761107969,-0.0177489686072632,0.740362525973599,-0.473023419251429,9.58893003576399,-0.185382400523183,-0.177327959630507,0.0373954085887831,1013.86695112484,25.0615175281779,1013.44680042469,24.678350865031
27.1498374938965,-1.0505588550798,-0.0238049069757142,8.49352506376334,6.67326000793905,5.76213432399115,10.2802411259954,0.457179810816054,-0.0677680474778298,9.17290608186743,-0.371634559652859,0.0728106088952149,0.214454988711963,-0.547579995593309,0.0720160792558245,9.95991239191349,-0.114970625706509,-0.129483398650334,0.13464158441206,1010.79979842502,25.5438888793552,1012.8996110617,25.3188182794455
27.3540363311768,1.03799148105611,-4.90387548530051,12.6985808269656,10.0743397860549,-4.25593078889414,7.25667098823669,-0.2645470284334,-0.394248276410786,10.3492659694005,0.214375192033953,-0.124216202534715,0.117545744375014,0.630525319710184,-0.0949033568676993,9.4769773385439,0.123832479634987,-0.0923043923898019,-0.111896940419951,1012.41441219806,25.7889247506157,1012.66963474582,24.5150641956847
27.5428314208984,-1.85763612573108,-2.29845264603035,11.1401893729447,0.0766274698132494,0.811869991471004,9.64038968877144,0.792884929994974,0.240080092560456,10.4173794692661,-0.0175814927095557,-0.101705634120125,-0.294586000469919,-0.433844113566677,0.408518202656533,9.5629456121815,0.191414342391452,-0.207701983547711,0.0737340131704907,1013.2372739417,24.8424996130569,1014.17841530003,25.7540962234078
27.7326641082764,0.0644312767723449,-1.25772415458722,21.9819625293839,-0.933727061051528,1.96359528525342,5.12370040769727,0.500941376589935,-0.933100228969735,9.85705416616647,-0.104250260796322,0.179146923209581,-0.0470469262691917,-0.162336975967553,-0.30482215101513,9.78440425467306,0.149384594544769,-0.162913487629155,-0.0753868966403852,1012.50913718619,25.5599342091055,1013.83356629894,25.1525445610805
27.941032409668,0.33880135923332,0.244537103162046,17.4422417878769,2.94660447572636,-0.726333805308195,6.62258863037825,-0.846068520779516,-0.393442877655485,9.68832742993014,-0.169477615615174,0.0528859036582893,0.181472756265016,0.121538065272876,0.186816261763033,9.65660542309918,-0.024736759792991,0.0808034612724744,0.150316916621826,1012.76813416212,24.9285911369775,1013.32967755668,24.8770049927666
28.1508502960205,-4.95304098084663,5.85697507881578,15.3708351189567,5.4460260679414,3.04774752111347,9.78846470283393,-0.202074960163058,0.263733685574077,8.69130037733545,-0.261203234761259,0.0659344728726658,0.559185735967996,0.394526674063959,-0.435719027244379,9.86832371013158,-0.0833308451613345,0.19190086763506,0.097991751101955,1013.01987842792,25.6296207644196,1012.47578384179,25.7867986374154
28.3304347991943,-2.12822680631076,4.5416466944957,4.5369534831518,-6.2228877161439,-1.08055322449384,22.3122697497146,-0.435332593656205,0.50901130184326,9.1547541224258,0.174417610215849,0.209792846170005,0.0734827130903307,0.354246993765674,0.365092240799867,9.62167593316998,-0.0412126609223723,0.295640342225476,-0.242363736893701,1015.56468082262,24.7540111298825,1012.28612209716,25.0544224301003
28.5115413665771,-0.683614143658324,1.39224322550729,10.0553332641877,-2.08572251743367,5.1294007959555,9.90328490714498,-0.371646318061193,-0.806028001409694,9.97871343323452,-0.0069985877168251,0.316990014965421,0.342151945645543,0.335092469609811,0.395607393673461,9.04334366695737,-0.210723840485584,0.187036601411621,-0.131590815769771,1012.33919870862,25.3370471828199,1011.86986535924,25.2653155328641
28.7051029205322,10.3225308961403,1.84286846440715,14.5000636084841,-4.96606551632261,-3.54236467585011,14.9235759789072,0.383814676938358,0.547713034994248,10.0351338190017,-0.0989375574592145,0.12969157498517,-0.0082083951375252,-0.176809327619013,0.731240523000725,10.3170482883765,-0.0002656102576381,0.28708156125515,0.0519472618719476,1012.80131493998,25.0145682175147,1013.59611224161,24.498634912913
